[
	{
		"success": true,
		"trial_type": "fullscreen",
		"trial_index": 0,
		"time_elapsed": 150497,
		"internal_node_id": "0.0-0.0"
	},
	{
		"rt": 11476,
		"key_press": 32,
		"trial_type": "text",
		"trial_index": 1,
		"time_elapsed": 161979,
		"internal_node_id": "0.0-1.0"
	},
	{
		"rt": "[6644]",
		"stimulus": "[\"<svg height=\\\"100\\\" width=\\\"100\\\"><circle cx=\\\"50\\\" cy=\\\"50\\\" r=\\\"30\\\" fill=\\\"gray\\\" stroke=\\\"black\\\" stroke-width=\\\"4\\\" /></svg>\",\"<svg height=\\\"100\\\" width=\\\"100\\\"><circle cx=\\\"50\\\" cy=\\\"50\\\" r=\\\"30\\\" fill=\\\"white\\\" stroke=\\\"black\\\" stroke-width=\\\"4\\\" /></svg>\",\"<svg height=\\\"100\\\" width=\\\"100\\\"><circle cx=\\\"50\\\" cy=\\\"50\\\" r=\\\"30\\\" fill=\\\"gray\\\" stroke=\\\"black\\\" stroke-width=\\\"4\\\" /></svg>\",\"<svg height=\\\"100\\\" width=\\\"100\\\"><circle cx=\\\"50\\\" cy=\\\"50\\\" r=\\\"30\\\" fill=\\\"white\\\" stroke=\\\"black\\\" stroke-width=\\\"4\\\" /></svg>\",\"<svg height=\\\"100\\\" width=\\\"100\\\"><circle cx=\\\"50\\\" cy=\\\"50\\\" r=\\\"30\\\" fill=\\\"gray\\\" stroke=\\\"black\\\" stroke-width=\\\"4\\\" /></svg>\",\"<svg height=\\\"100\\\" width=\\\"100\\\"><circle cx=\\\"50\\\" cy=\\\"50\\\" r=\\\"30\\\" fill=\\\"white\\\" stroke=\\\"black\\\" stroke-width=\\\"4\\\" /></svg>\",\"<svg height=\\\"100\\\" width=\\\"100\\\"><circle cx=\\\"50\\\" cy=\\\"50\\\" r=\\\"30\\\" fill=\\\"gray\\\" stroke=\\\"black\\\" stroke-width=\\\"4\\\" /></svg>\",\"<svg height=\\\"100\\\" width=\\\"100\\\"><circle cx=\\\"50\\\" cy=\\\"50\\\" r=\\\"30\\\" fill=\\\"white\\\" stroke=\\\"black\\\" stroke-width=\\\"4\\\" /></svg>\"]",
		"key_press": "[70]",
		"period_ms": 1800,
		"first_flash_ms": 960,
		"flash_time_diff": 60,
		"trial_type": "multi-stim-multi-response",
		"trial_index": 2,
		"time_elapsed": 170169,
		"internal_node_id": "0.0-2.0-0.0",
		"respond_longer": false,
		"response_time": 3884
	},
	{
		"rt": "[4093]",
		"stimulus": "[\"<svg height=\\\"100\\\" width=\\\"100\\\"><circle cx=\\\"50\\\" cy=\\\"50\\\" r=\\\"30\\\" fill=\\\"gray\\\" stroke=\\\"black\\\" stroke-width=\\\"4\\\" /></svg>\",\"<svg height=\\\"100\\\" width=\\\"100\\\"><circle cx=\\\"50\\\" cy=\\\"50\\\" r=\\\"30\\\" fill=\\\"white\\\" stroke=\\\"black\\\" stroke-width=\\\"4\\\" /></svg>\",\"<svg height=\\\"100\\\" width=\\\"100\\\"><circle cx=\\\"50\\\" cy=\\\"50\\\" r=\\\"30\\\" fill=\\\"gray\\\" stroke=\\\"black\\\" stroke-width=\\\"4\\\" /></svg>\",\"<svg height=\\\"100\\\" width=\\\"100\\\"><circle cx=\\\"50\\\" cy=\\\"50\\\" r=\\\"30\\\" fill=\\\"white\\\" stroke=\\\"black\\\" stroke-width=\\\"4\\\" /></svg>\",\"<svg height=\\\"100\\\" width=\\\"100\\\"><circle cx=\\\"50\\\" cy=\\\"50\\\" r=\\\"30\\\" fill=\\\"gray\\\" stroke=\\\"black\\\" stroke-width=\\\"4\\\" /></svg>\",\"<svg height=\\\"100\\\" width=\\\"100\\\"><circle cx=\\\"50\\\" cy=\\\"50\\\" r=\\\"30\\\" fill=\\\"white\\\" stroke=\\\"black\\\" stroke-width=\\\"4\\\" /></svg>\",\"<svg height=\\\"100\\\" width=\\\"100\\\"><circle cx=\\\"50\\\" cy=\\\"50\\\" r=\\\"30\\\" fill=\\\"gray\\\" stroke=\\\"black\\\" stroke-width=\\\"4\\\" /></svg>\",\"<svg height=\\\"100\\\" width=\\\"100\\\"><circle cx=\\\"50\\\" cy=\\\"50\\\" r=\\\"30\\\" fill=\\\"white\\\" stroke=\\\"black\\\" stroke-width=\\\"4\\\" /></svg>\"]",
		"key_press": "[74]",
		"period_ms": 1800,
		"first_flash_ms": 600,
		"flash_time_diff": -300,
		"trial_type": "multi-stim-multi-response",
		"trial_index": 3,
		"time_elapsed": 176491,
		"internal_node_id": "0.0-2.0-1.0",
		"respond_longer": true,
		"response_time": 1693
	},
	{
		"rt": "[4940]",
		"stimulus": "[\"<svg height=\\\"100\\\" width=\\\"100\\\"><circle cx=\\\"50\\\" cy=\\\"50\\\" r=\\\"30\\\" fill=\\\"gray\\\" stroke=\\\"black\\\" stroke-width=\\\"4\\\" /></svg>\",\"<svg height=\\\"100\\\" width=\\\"100\\\"><circle cx=\\\"50\\\" cy=\\\"50\\\" r=\\\"30\\\" fill=\\\"white\\\" stroke=\\\"black\\\" stroke-width=\\\"4\\\" /></svg>\",\"<svg height=\\\"100\\\" width=\\\"100\\\"><circle cx=\\\"50\\\" cy=\\\"50\\\" r=\\\"30\\\" fill=\\\"gray\\\" stroke=\\\"black\\\" stroke-width=\\\"4\\\" /></svg>\",\"<svg height=\\\"100\\\" width=\\\"100\\\"><circle cx=\\\"50\\\" cy=\\\"50\\\" r=\\\"30\\\" fill=\\\"white\\\" stroke=\\\"black\\\" stroke-width=\\\"4\\\" /></svg>\",\"<svg height=\\\"100\\\" width=\\\"100\\\"><circle cx=\\\"50\\\" cy=\\\"50\\\" r=\\\"30\\\" fill=\\\"gray\\\" stroke=\\\"black\\\" stroke-width=\\\"4\\\" /></svg>\",\"<svg height=\\\"100\\\" width=\\\"100\\\"><circle cx=\\\"50\\\" cy=\\\"50\\\" r=\\\"30\\\" fill=\\\"white\\\" stroke=\\\"black\\\" stroke-width=\\\"4\\\" /></svg>\",\"<svg height=\\\"100\\\" width=\\\"100\\\"><circle cx=\\\"50\\\" cy=\\\"50\\\" r=\\\"30\\\" fill=\\\"gray\\\" stroke=\\\"black\\\" stroke-width=\\\"4\\\" /></svg>\",\"<svg height=\\\"100\\\" width=\\\"100\\\"><circle cx=\\\"50\\\" cy=\\\"50\\\" r=\\\"30\\\" fill=\\\"white\\\" stroke=\\\"black\\\" stroke-width=\\\"4\\\" /></svg>\"]",
		"key_press": "[70]",
		"period_ms": 1600,
		"first_flash_ms": 1020,
		"flash_time_diff": 220,
		"trial_type": "multi-stim-multi-response",
		"trial_index": 4,
		"time_elapsed": 183243,
		"internal_node_id": "0.0-2.0-2.0",
		"respond_longer": false,
		"response_time": 2320
	},
	{
		"rt": "[4290]",
		"stimulus": "[\"<svg height=\\\"100\\\" width=\\\"100\\\"><circle cx=\\\"50\\\" cy=\\\"50\\\" r=\\\"30\\\" fill=\\\"gray\\\" stroke=\\\"black\\\" stroke-width=\\\"4\\\" /></svg>\",\"<svg height=\\\"100\\\" width=\\\"100\\\"><circle cx=\\\"50\\\" cy=\\\"50\\\" r=\\\"30\\\" fill=\\\"white\\\" stroke=\\\"black\\\" stroke-width=\\\"4\\\" /></svg>\",\"<svg height=\\\"100\\\" width=\\\"100\\\"><circle cx=\\\"50\\\" cy=\\\"50\\\" r=\\\"30\\\" fill=\\\"gray\\\" stroke=\\\"black\\\" stroke-width=\\\"4\\\" /></svg>\",\"<svg height=\\\"100\\\" width=\\\"100\\\"><circle cx=\\\"50\\\" cy=\\\"50\\\" r=\\\"30\\\" fill=\\\"white\\\" stroke=\\\"black\\\" stroke-width=\\\"4\\\" /></svg>\",\"<svg height=\\\"100\\\" width=\\\"100\\\"><circle cx=\\\"50\\\" cy=\\\"50\\\" r=\\\"30\\\" fill=\\\"gray\\\" stroke=\\\"black\\\" stroke-width=\\\"4\\\" /></svg>\",\"<svg height=\\\"100\\\" width=\\\"100\\\"><circle cx=\\\"50\\\" cy=\\\"50\\\" r=\\\"30\\\" fill=\\\"white\\\" stroke=\\\"black\\\" stroke-width=\\\"4\\\" /></svg>\",\"<svg height=\\\"100\\\" width=\\\"100\\\"><circle cx=\\\"50\\\" cy=\\\"50\\\" r=\\\"30\\\" fill=\\\"gray\\\" stroke=\\\"black\\\" stroke-width=\\\"4\\\" /></svg>\",\"<svg height=\\\"100\\\" width=\\\"100\\\"><circle cx=\\\"50\\\" cy=\\\"50\\\" r=\\\"30\\\" fill=\\\"white\\\" stroke=\\\"black\\\" stroke-width=\\\"4\\\" /></svg>\"]",
		"key_press": "[74]",
		"period_ms": 1400,
		"first_flash_ms": 480,
		"flash_time_diff": -220,
		"trial_type": "multi-stim-multi-response",
		"trial_index": 5,
		"time_elapsed": 189711,
		"internal_node_id": "0.0-2.0-3.0",
		"respond_longer": true,
		"response_time": 2410
	},
	{
		"rt": "[6462]",
		"stimulus": "[\"<svg height=\\\"100\\\" width=\\\"100\\\"><circle cx=\\\"50\\\" cy=\\\"50\\\" r=\\\"30\\\" fill=\\\"gray\\\" stroke=\\\"black\\\" stroke-width=\\\"4\\\" /></svg>\",\"<svg height=\\\"100\\\" width=\\\"100\\\"><circle cx=\\\"50\\\" cy=\\\"50\\\" r=\\\"30\\\" fill=\\\"white\\\" stroke=\\\"black\\\" stroke-width=\\\"4\\\" /></svg>\",\"<svg height=\\\"100\\\" width=\\\"100\\\"><circle cx=\\\"50\\\" cy=\\\"50\\\" r=\\\"30\\\" fill=\\\"gray\\\" stroke=\\\"black\\\" stroke-width=\\\"4\\\" /></svg>\",\"<svg height=\\\"100\\\" width=\\\"100\\\"><circle cx=\\\"50\\\" cy=\\\"50\\\" r=\\\"30\\\" fill=\\\"white\\\" stroke=\\\"black\\\" stroke-width=\\\"4\\\" /></svg>\",\"<svg height=\\\"100\\\" width=\\\"100\\\"><circle cx=\\\"50\\\" cy=\\\"50\\\" r=\\\"30\\\" fill=\\\"gray\\\" stroke=\\\"black\\\" stroke-width=\\\"4\\\" /></svg>\",\"<svg height=\\\"100\\\" width=\\\"100\\\"><circle cx=\\\"50\\\" cy=\\\"50\\\" r=\\\"30\\\" fill=\\\"white\\\" stroke=\\\"black\\\" stroke-width=\\\"4\\\" /></svg>\",\"<svg height=\\\"100\\\" width=\\\"100\\\"><circle cx=\\\"50\\\" cy=\\\"50\\\" r=\\\"30\\\" fill=\\\"gray\\\" stroke=\\\"black\\\" stroke-width=\\\"4\\\" /></svg>\",\"<svg height=\\\"100\\\" width=\\\"100\\\"><circle cx=\\\"50\\\" cy=\\\"50\\\" r=\\\"30\\\" fill=\\\"white\\\" stroke=\\\"black\\\" stroke-width=\\\"4\\\" /></svg>\"]",
		"key_press": "[70]",
		"period_ms": 1800,
		"first_flash_ms": 720,
		"flash_time_diff": -180,
		"trial_type": "multi-stim-multi-response",
		"trial_index": 6,
		"time_elapsed": 197503,
		"internal_node_id": "0.0-2.0-4.0",
		"respond_longer": false,
		"response_time": 3942
	},
	{
		"rt": "[4206]",
		"stimulus": "[\"<svg height=\\\"100\\\" width=\\\"100\\\"><circle cx=\\\"50\\\" cy=\\\"50\\\" r=\\\"30\\\" fill=\\\"gray\\\" stroke=\\\"black\\\" stroke-width=\\\"4\\\" /></svg>\",\"<svg height=\\\"100\\\" width=\\\"100\\\"><circle cx=\\\"50\\\" cy=\\\"50\\\" r=\\\"30\\\" fill=\\\"white\\\" stroke=\\\"black\\\" stroke-width=\\\"4\\\" /></svg>\",\"<svg height=\\\"100\\\" width=\\\"100\\\"><circle cx=\\\"50\\\" cy=\\\"50\\\" r=\\\"30\\\" fill=\\\"gray\\\" stroke=\\\"black\\\" stroke-width=\\\"4\\\" /></svg>\",\"<svg height=\\\"100\\\" width=\\\"100\\\"><circle cx=\\\"50\\\" cy=\\\"50\\\" r=\\\"30\\\" fill=\\\"white\\\" stroke=\\\"black\\\" stroke-width=\\\"4\\\" /></svg>\",\"<svg height=\\\"100\\\" width=\\\"100\\\"><circle cx=\\\"50\\\" cy=\\\"50\\\" r=\\\"30\\\" fill=\\\"gray\\\" stroke=\\\"black\\\" stroke-width=\\\"4\\\" /></svg>\",\"<svg height=\\\"100\\\" width=\\\"100\\\"><circle cx=\\\"50\\\" cy=\\\"50\\\" r=\\\"30\\\" fill=\\\"white\\\" stroke=\\\"black\\\" stroke-width=\\\"4\\\" /></svg>\",\"<svg height=\\\"100\\\" width=\\\"100\\\"><circle cx=\\\"50\\\" cy=\\\"50\\\" r=\\\"30\\\" fill=\\\"gray\\\" stroke=\\\"black\\\" stroke-width=\\\"4\\\" /></svg>\",\"<svg height=\\\"100\\\" width=\\\"100\\\"><circle cx=\\\"50\\\" cy=\\\"50\\\" r=\\\"30\\\" fill=\\\"white\\\" stroke=\\\"black\\\" stroke-width=\\\"4\\\" /></svg>\"]",
		"key_press": "[74]",
		"period_ms": 1400,
		"first_flash_ms": 880,
		"flash_time_diff": 180,
		"trial_type": "multi-stim-multi-response",
		"trial_index": 7,
		"time_elapsed": 203914,
		"internal_node_id": "0.0-2.0-5.0",
		"respond_longer": true,
		"response_time": 1926
	},
	{
		"rt": "[8003]",
		"stimulus": "[\"<svg height=\\\"100\\\" width=\\\"100\\\"><circle cx=\\\"50\\\" cy=\\\"50\\\" r=\\\"30\\\" fill=\\\"gray\\\" stroke=\\\"black\\\" stroke-width=\\\"4\\\" /></svg>\",\"<svg height=\\\"100\\\" width=\\\"100\\\"><circle cx=\\\"50\\\" cy=\\\"50\\\" r=\\\"30\\\" fill=\\\"white\\\" stroke=\\\"black\\\" stroke-width=\\\"4\\\" /></svg>\",\"<svg height=\\\"100\\\" width=\\\"100\\\"><circle cx=\\\"50\\\" cy=\\\"50\\\" r=\\\"30\\\" fill=\\\"gray\\\" stroke=\\\"black\\\" stroke-width=\\\"4\\\" /></svg>\",\"<svg height=\\\"100\\\" width=\\\"100\\\"><circle cx=\\\"50\\\" cy=\\\"50\\\" r=\\\"30\\\" fill=\\\"white\\\" stroke=\\\"black\\\" stroke-width=\\\"4\\\" /></svg>\",\"<svg height=\\\"100\\\" width=\\\"100\\\"><circle cx=\\\"50\\\" cy=\\\"50\\\" r=\\\"30\\\" fill=\\\"gray\\\" stroke=\\\"black\\\" stroke-width=\\\"4\\\" /></svg>\",\"<svg height=\\\"100\\\" width=\\\"100\\\"><circle cx=\\\"50\\\" cy=\\\"50\\\" r=\\\"30\\\" fill=\\\"white\\\" stroke=\\\"black\\\" stroke-width=\\\"4\\\" /></svg>\",\"<svg height=\\\"100\\\" width=\\\"100\\\"><circle cx=\\\"50\\\" cy=\\\"50\\\" r=\\\"30\\\" fill=\\\"gray\\\" stroke=\\\"black\\\" stroke-width=\\\"4\\\" /></svg>\",\"<svg height=\\\"100\\\" width=\\\"100\\\"><circle cx=\\\"50\\\" cy=\\\"50\\\" r=\\\"30\\\" fill=\\\"white\\\" stroke=\\\"black\\\" stroke-width=\\\"4\\\" /></svg>\"]",
		"key_press": "[74]",
		"period_ms": 1800,
		"first_flash_ms": 680,
		"flash_time_diff": -220,
		"trial_type": "multi-stim-multi-response",
		"trial_index": 8,
		"time_elapsed": 213172,
		"internal_node_id": "0.0-2.0-6.0",
		"respond_longer": true,
		"response_time": 5523
	},
	{
		"rt": "[5186]",
		"stimulus": "[\"<svg height=\\\"100\\\" width=\\\"100\\\"><circle cx=\\\"50\\\" cy=\\\"50\\\" r=\\\"30\\\" fill=\\\"gray\\\" stroke=\\\"black\\\" stroke-width=\\\"4\\\" /></svg>\",\"<svg height=\\\"100\\\" width=\\\"100\\\"><circle cx=\\\"50\\\" cy=\\\"50\\\" r=\\\"30\\\" fill=\\\"white\\\" stroke=\\\"black\\\" stroke-width=\\\"4\\\" /></svg>\",\"<svg height=\\\"100\\\" width=\\\"100\\\"><circle cx=\\\"50\\\" cy=\\\"50\\\" r=\\\"30\\\" fill=\\\"gray\\\" stroke=\\\"black\\\" stroke-width=\\\"4\\\" /></svg>\",\"<svg height=\\\"100\\\" width=\\\"100\\\"><circle cx=\\\"50\\\" cy=\\\"50\\\" r=\\\"30\\\" fill=\\\"white\\\" stroke=\\\"black\\\" stroke-width=\\\"4\\\" /></svg>\",\"<svg height=\\\"100\\\" width=\\\"100\\\"><circle cx=\\\"50\\\" cy=\\\"50\\\" r=\\\"30\\\" fill=\\\"gray\\\" stroke=\\\"black\\\" stroke-width=\\\"4\\\" /></svg>\",\"<svg height=\\\"100\\\" width=\\\"100\\\"><circle cx=\\\"50\\\" cy=\\\"50\\\" r=\\\"30\\\" fill=\\\"white\\\" stroke=\\\"black\\\" stroke-width=\\\"4\\\" /></svg>\",\"<svg height=\\\"100\\\" width=\\\"100\\\"><circle cx=\\\"50\\\" cy=\\\"50\\\" r=\\\"30\\\" fill=\\\"gray\\\" stroke=\\\"black\\\" stroke-width=\\\"4\\\" /></svg>\",\"<svg height=\\\"100\\\" width=\\\"100\\\"><circle cx=\\\"50\\\" cy=\\\"50\\\" r=\\\"30\\\" fill=\\\"white\\\" stroke=\\\"black\\\" stroke-width=\\\"4\\\" /></svg>\"]",
		"key_press": "[74]",
		"period_ms": 1800,
		"first_flash_ms": 1200,
		"flash_time_diff": 300,
		"trial_type": "multi-stim-multi-response",
		"trial_index": 9,
		"time_elapsed": 219719,
		"internal_node_id": "0.0-2.0-7.0",
		"respond_longer": true,
		"response_time": 2186
	},
	{
		"rt": "[4877]",
		"stimulus": "[\"<svg height=\\\"100\\\" width=\\\"100\\\"><circle cx=\\\"50\\\" cy=\\\"50\\\" r=\\\"30\\\" fill=\\\"gray\\\" stroke=\\\"black\\\" stroke-width=\\\"4\\\" /></svg>\",\"<svg height=\\\"100\\\" width=\\\"100\\\"><circle cx=\\\"50\\\" cy=\\\"50\\\" r=\\\"30\\\" fill=\\\"white\\\" stroke=\\\"black\\\" stroke-width=\\\"4\\\" /></svg>\",\"<svg height=\\\"100\\\" width=\\\"100\\\"><circle cx=\\\"50\\\" cy=\\\"50\\\" r=\\\"30\\\" fill=\\\"gray\\\" stroke=\\\"black\\\" stroke-width=\\\"4\\\" /></svg>\",\"<svg height=\\\"100\\\" width=\\\"100\\\"><circle cx=\\\"50\\\" cy=\\\"50\\\" r=\\\"30\\\" fill=\\\"white\\\" stroke=\\\"black\\\" stroke-width=\\\"4\\\" /></svg>\",\"<svg height=\\\"100\\\" width=\\\"100\\\"><circle cx=\\\"50\\\" cy=\\\"50\\\" r=\\\"30\\\" fill=\\\"gray\\\" stroke=\\\"black\\\" stroke-width=\\\"4\\\" /></svg>\",\"<svg height=\\\"100\\\" width=\\\"100\\\"><circle cx=\\\"50\\\" cy=\\\"50\\\" r=\\\"30\\\" fill=\\\"white\\\" stroke=\\\"black\\\" stroke-width=\\\"4\\\" /></svg>\",\"<svg height=\\\"100\\\" width=\\\"100\\\"><circle cx=\\\"50\\\" cy=\\\"50\\\" r=\\\"30\\\" fill=\\\"gray\\\" stroke=\\\"black\\\" stroke-width=\\\"4\\\" /></svg>\",\"<svg height=\\\"100\\\" width=\\\"100\\\"><circle cx=\\\"50\\\" cy=\\\"50\\\" r=\\\"30\\\" fill=\\\"white\\\" stroke=\\\"black\\\" stroke-width=\\\"4\\\" /></svg>\"]",
		"key_press": "[74]",
		"period_ms": 1800,
		"first_flash_ms": 1000,
		"flash_time_diff": 100,
		"trial_type": "multi-stim-multi-response",
		"trial_index": 10,
		"time_elapsed": 226709,
		"internal_node_id": "0.0-2.0-8.0",
		"respond_longer": true,
		"response_time": 2077
	},
	{
		"rt": "[4367]",
		"stimulus": "[\"<svg height=\\\"100\\\" width=\\\"100\\\"><circle cx=\\\"50\\\" cy=\\\"50\\\" r=\\\"30\\\" fill=\\\"gray\\\" stroke=\\\"black\\\" stroke-width=\\\"4\\\" /></svg>\",\"<svg height=\\\"100\\\" width=\\\"100\\\"><circle cx=\\\"50\\\" cy=\\\"50\\\" r=\\\"30\\\" fill=\\\"white\\\" stroke=\\\"black\\\" stroke-width=\\\"4\\\" /></svg>\",\"<svg height=\\\"100\\\" width=\\\"100\\\"><circle cx=\\\"50\\\" cy=\\\"50\\\" r=\\\"30\\\" fill=\\\"gray\\\" stroke=\\\"black\\\" stroke-width=\\\"4\\\" /></svg>\",\"<svg height=\\\"100\\\" width=\\\"100\\\"><circle cx=\\\"50\\\" cy=\\\"50\\\" r=\\\"30\\\" fill=\\\"white\\\" stroke=\\\"black\\\" stroke-width=\\\"4\\\" /></svg>\",\"<svg height=\\\"100\\\" width=\\\"100\\\"><circle cx=\\\"50\\\" cy=\\\"50\\\" r=\\\"30\\\" fill=\\\"gray\\\" stroke=\\\"black\\\" stroke-width=\\\"4\\\" /></svg>\",\"<svg height=\\\"100\\\" width=\\\"100\\\"><circle cx=\\\"50\\\" cy=\\\"50\\\" r=\\\"30\\\" fill=\\\"white\\\" stroke=\\\"black\\\" stroke-width=\\\"4\\\" /></svg>\",\"<svg height=\\\"100\\\" width=\\\"100\\\"><circle cx=\\\"50\\\" cy=\\\"50\\\" r=\\\"30\\\" fill=\\\"gray\\\" stroke=\\\"black\\\" stroke-width=\\\"4\\\" /></svg>\",\"<svg height=\\\"100\\\" width=\\\"100\\\"><circle cx=\\\"50\\\" cy=\\\"50\\\" r=\\\"30\\\" fill=\\\"white\\\" stroke=\\\"black\\\" stroke-width=\\\"4\\\" /></svg>\"]",
		"key_press": "[74]",
		"period_ms": 1800,
		"first_flash_ms": 1080,
		"flash_time_diff": 180,
		"trial_type": "multi-stim-multi-response",
		"trial_index": 11,
		"time_elapsed": 232781,
		"internal_node_id": "0.0-2.0-9.0",
		"respond_longer": true,
		"response_time": 1487
	},
	{
		"rt": "[4459]",
		"stimulus": "[\"<svg height=\\\"100\\\" width=\\\"100\\\"><circle cx=\\\"50\\\" cy=\\\"50\\\" r=\\\"30\\\" fill=\\\"gray\\\" stroke=\\\"black\\\" stroke-width=\\\"4\\\" /></svg>\",\"<svg height=\\\"100\\\" width=\\\"100\\\"><circle cx=\\\"50\\\" cy=\\\"50\\\" r=\\\"30\\\" fill=\\\"white\\\" stroke=\\\"black\\\" stroke-width=\\\"4\\\" /></svg>\",\"<svg height=\\\"100\\\" width=\\\"100\\\"><circle cx=\\\"50\\\" cy=\\\"50\\\" r=\\\"30\\\" fill=\\\"gray\\\" stroke=\\\"black\\\" stroke-width=\\\"4\\\" /></svg>\",\"<svg height=\\\"100\\\" width=\\\"100\\\"><circle cx=\\\"50\\\" cy=\\\"50\\\" r=\\\"30\\\" fill=\\\"white\\\" stroke=\\\"black\\\" stroke-width=\\\"4\\\" /></svg>\",\"<svg height=\\\"100\\\" width=\\\"100\\\"><circle cx=\\\"50\\\" cy=\\\"50\\\" r=\\\"30\\\" fill=\\\"gray\\\" stroke=\\\"black\\\" stroke-width=\\\"4\\\" /></svg>\",\"<svg height=\\\"100\\\" width=\\\"100\\\"><circle cx=\\\"50\\\" cy=\\\"50\\\" r=\\\"30\\\" fill=\\\"white\\\" stroke=\\\"black\\\" stroke-width=\\\"4\\\" /></svg>\",\"<svg height=\\\"100\\\" width=\\\"100\\\"><circle cx=\\\"50\\\" cy=\\\"50\\\" r=\\\"30\\\" fill=\\\"gray\\\" stroke=\\\"black\\\" stroke-width=\\\"4\\\" /></svg>\",\"<svg height=\\\"100\\\" width=\\\"100\\\"><circle cx=\\\"50\\\" cy=\\\"50\\\" r=\\\"30\\\" fill=\\\"white\\\" stroke=\\\"black\\\" stroke-width=\\\"4\\\" /></svg>\"]",
		"key_press": "[74]",
		"period_ms": 1400,
		"first_flash_ms": 880,
		"flash_time_diff": 180,
		"trial_type": "multi-stim-multi-response",
		"trial_index": 12,
		"time_elapsed": 238183,
		"internal_node_id": "0.0-2.0-10.0",
		"respond_longer": true,
		"response_time": 2179
	},
	{
		"rt": "[5913]",
		"stimulus": "[\"<svg height=\\\"100\\\" width=\\\"100\\\"><circle cx=\\\"50\\\" cy=\\\"50\\\" r=\\\"30\\\" fill=\\\"gray\\\" stroke=\\\"black\\\" stroke-width=\\\"4\\\" /></svg>\",\"<svg height=\\\"100\\\" width=\\\"100\\\"><circle cx=\\\"50\\\" cy=\\\"50\\\" r=\\\"30\\\" fill=\\\"white\\\" stroke=\\\"black\\\" stroke-width=\\\"4\\\" /></svg>\",\"<svg height=\\\"100\\\" width=\\\"100\\\"><circle cx=\\\"50\\\" cy=\\\"50\\\" r=\\\"30\\\" fill=\\\"gray\\\" stroke=\\\"black\\\" stroke-width=\\\"4\\\" /></svg>\",\"<svg height=\\\"100\\\" width=\\\"100\\\"><circle cx=\\\"50\\\" cy=\\\"50\\\" r=\\\"30\\\" fill=\\\"white\\\" stroke=\\\"black\\\" stroke-width=\\\"4\\\" /></svg>\",\"<svg height=\\\"100\\\" width=\\\"100\\\"><circle cx=\\\"50\\\" cy=\\\"50\\\" r=\\\"30\\\" fill=\\\"gray\\\" stroke=\\\"black\\\" stroke-width=\\\"4\\\" /></svg>\",\"<svg height=\\\"100\\\" width=\\\"100\\\"><circle cx=\\\"50\\\" cy=\\\"50\\\" r=\\\"30\\\" fill=\\\"white\\\" stroke=\\\"black\\\" stroke-width=\\\"4\\\" /></svg>\",\"<svg height=\\\"100\\\" width=\\\"100\\\"><circle cx=\\\"50\\\" cy=\\\"50\\\" r=\\\"30\\\" fill=\\\"gray\\\" stroke=\\\"black\\\" stroke-width=\\\"4\\\" /></svg>\",\"<svg height=\\\"100\\\" width=\\\"100\\\"><circle cx=\\\"50\\\" cy=\\\"50\\\" r=\\\"30\\\" fill=\\\"white\\\" stroke=\\\"black\\\" stroke-width=\\\"4\\\" /></svg>\"]",
		"key_press": "[74]",
		"period_ms": 1600,
		"first_flash_ms": 540,
		"flash_time_diff": -260,
		"trial_type": "multi-stim-multi-response",
		"trial_index": 13,
		"time_elapsed": 245363,
		"internal_node_id": "0.0-2.0-11.0",
		"respond_longer": true,
		"response_time": 3773
	},
	{
		"rt": "[5164]",
		"stimulus": "[\"<svg height=\\\"100\\\" width=\\\"100\\\"><circle cx=\\\"50\\\" cy=\\\"50\\\" r=\\\"30\\\" fill=\\\"gray\\\" stroke=\\\"black\\\" stroke-width=\\\"4\\\" /></svg>\",\"<svg height=\\\"100\\\" width=\\\"100\\\"><circle cx=\\\"50\\\" cy=\\\"50\\\" r=\\\"30\\\" fill=\\\"white\\\" stroke=\\\"black\\\" stroke-width=\\\"4\\\" /></svg>\",\"<svg height=\\\"100\\\" width=\\\"100\\\"><circle cx=\\\"50\\\" cy=\\\"50\\\" r=\\\"30\\\" fill=\\\"gray\\\" stroke=\\\"black\\\" stroke-width=\\\"4\\\" /></svg>\",\"<svg height=\\\"100\\\" width=\\\"100\\\"><circle cx=\\\"50\\\" cy=\\\"50\\\" r=\\\"30\\\" fill=\\\"white\\\" stroke=\\\"black\\\" stroke-width=\\\"4\\\" /></svg>\",\"<svg height=\\\"100\\\" width=\\\"100\\\"><circle cx=\\\"50\\\" cy=\\\"50\\\" r=\\\"30\\\" fill=\\\"gray\\\" stroke=\\\"black\\\" stroke-width=\\\"4\\\" /></svg>\",\"<svg height=\\\"100\\\" width=\\\"100\\\"><circle cx=\\\"50\\\" cy=\\\"50\\\" r=\\\"30\\\" fill=\\\"white\\\" stroke=\\\"black\\\" stroke-width=\\\"4\\\" /></svg>\",\"<svg height=\\\"100\\\" width=\\\"100\\\"><circle cx=\\\"50\\\" cy=\\\"50\\\" r=\\\"30\\\" fill=\\\"gray\\\" stroke=\\\"black\\\" stroke-width=\\\"4\\\" /></svg>\",\"<svg height=\\\"100\\\" width=\\\"100\\\"><circle cx=\\\"50\\\" cy=\\\"50\\\" r=\\\"30\\\" fill=\\\"white\\\" stroke=\\\"black\\\" stroke-width=\\\"4\\\" /></svg>\"]",
		"key_press": "[74]",
		"period_ms": 1400,
		"first_flash_ms": 480,
		"flash_time_diff": -220,
		"trial_type": "multi-stim-multi-response",
		"trial_index": 14,
		"time_elapsed": 251382,
		"internal_node_id": "0.0-2.0-12.0",
		"respond_longer": true,
		"response_time": 3284
	},
	{
		"rt": "[4609]",
		"stimulus": "[\"<svg height=\\\"100\\\" width=\\\"100\\\"><circle cx=\\\"50\\\" cy=\\\"50\\\" r=\\\"30\\\" fill=\\\"gray\\\" stroke=\\\"black\\\" stroke-width=\\\"4\\\" /></svg>\",\"<svg height=\\\"100\\\" width=\\\"100\\\"><circle cx=\\\"50\\\" cy=\\\"50\\\" r=\\\"30\\\" fill=\\\"white\\\" stroke=\\\"black\\\" stroke-width=\\\"4\\\" /></svg>\",\"<svg height=\\\"100\\\" width=\\\"100\\\"><circle cx=\\\"50\\\" cy=\\\"50\\\" r=\\\"30\\\" fill=\\\"gray\\\" stroke=\\\"black\\\" stroke-width=\\\"4\\\" /></svg>\",\"<svg height=\\\"100\\\" width=\\\"100\\\"><circle cx=\\\"50\\\" cy=\\\"50\\\" r=\\\"30\\\" fill=\\\"white\\\" stroke=\\\"black\\\" stroke-width=\\\"4\\\" /></svg>\",\"<svg height=\\\"100\\\" width=\\\"100\\\"><circle cx=\\\"50\\\" cy=\\\"50\\\" r=\\\"30\\\" fill=\\\"gray\\\" stroke=\\\"black\\\" stroke-width=\\\"4\\\" /></svg>\",\"<svg height=\\\"100\\\" width=\\\"100\\\"><circle cx=\\\"50\\\" cy=\\\"50\\\" r=\\\"30\\\" fill=\\\"white\\\" stroke=\\\"black\\\" stroke-width=\\\"4\\\" /></svg>\",\"<svg height=\\\"100\\\" width=\\\"100\\\"><circle cx=\\\"50\\\" cy=\\\"50\\\" r=\\\"30\\\" fill=\\\"gray\\\" stroke=\\\"black\\\" stroke-width=\\\"4\\\" /></svg>\",\"<svg height=\\\"100\\\" width=\\\"100\\\"><circle cx=\\\"50\\\" cy=\\\"50\\\" r=\\\"30\\\" fill=\\\"white\\\" stroke=\\\"black\\\" stroke-width=\\\"4\\\" /></svg>\"]",
		"key_press": "[74]",
		"period_ms": 1400,
		"first_flash_ms": 720,
		"flash_time_diff": 20,
		"trial_type": "multi-stim-multi-response",
		"trial_index": 15,
		"time_elapsed": 257222,
		"internal_node_id": "0.0-2.0-13.0",
		"respond_longer": true,
		"response_time": 2489
	},
	{
		"rt": "[5971]",
		"stimulus": "[\"<svg height=\\\"100\\\" width=\\\"100\\\"><circle cx=\\\"50\\\" cy=\\\"50\\\" r=\\\"30\\\" fill=\\\"gray\\\" stroke=\\\"black\\\" stroke-width=\\\"4\\\" /></svg>\",\"<svg height=\\\"100\\\" width=\\\"100\\\"><circle cx=\\\"50\\\" cy=\\\"50\\\" r=\\\"30\\\" fill=\\\"white\\\" stroke=\\\"black\\\" stroke-width=\\\"4\\\" /></svg>\",\"<svg height=\\\"100\\\" width=\\\"100\\\"><circle cx=\\\"50\\\" cy=\\\"50\\\" r=\\\"30\\\" fill=\\\"gray\\\" stroke=\\\"black\\\" stroke-width=\\\"4\\\" /></svg>\",\"<svg height=\\\"100\\\" width=\\\"100\\\"><circle cx=\\\"50\\\" cy=\\\"50\\\" r=\\\"30\\\" fill=\\\"white\\\" stroke=\\\"black\\\" stroke-width=\\\"4\\\" /></svg>\",\"<svg height=\\\"100\\\" width=\\\"100\\\"><circle cx=\\\"50\\\" cy=\\\"50\\\" r=\\\"30\\\" fill=\\\"gray\\\" stroke=\\\"black\\\" stroke-width=\\\"4\\\" /></svg>\",\"<svg height=\\\"100\\\" width=\\\"100\\\"><circle cx=\\\"50\\\" cy=\\\"50\\\" r=\\\"30\\\" fill=\\\"white\\\" stroke=\\\"black\\\" stroke-width=\\\"4\\\" /></svg>\",\"<svg height=\\\"100\\\" width=\\\"100\\\"><circle cx=\\\"50\\\" cy=\\\"50\\\" r=\\\"30\\\" fill=\\\"gray\\\" stroke=\\\"black\\\" stroke-width=\\\"4\\\" /></svg>\",\"<svg height=\\\"100\\\" width=\\\"100\\\"><circle cx=\\\"50\\\" cy=\\\"50\\\" r=\\\"30\\\" fill=\\\"white\\\" stroke=\\\"black\\\" stroke-width=\\\"4\\\" /></svg>\"]",
		"key_press": "[70]",
		"period_ms": 1600,
		"first_flash_ms": 700,
		"flash_time_diff": -100,
		"trial_type": "multi-stim-multi-response",
		"trial_index": 16,
		"time_elapsed": 264329,
		"internal_node_id": "0.0-2.0-14.0",
		"respond_longer": false,
		"response_time": 3671
	},
	{
		"rt": "[5835]",
		"stimulus": "[\"<svg height=\\\"100\\\" width=\\\"100\\\"><circle cx=\\\"50\\\" cy=\\\"50\\\" r=\\\"30\\\" fill=\\\"gray\\\" stroke=\\\"black\\\" stroke-width=\\\"4\\\" /></svg>\",\"<svg height=\\\"100\\\" width=\\\"100\\\"><circle cx=\\\"50\\\" cy=\\\"50\\\" r=\\\"30\\\" fill=\\\"white\\\" stroke=\\\"black\\\" stroke-width=\\\"4\\\" /></svg>\",\"<svg height=\\\"100\\\" width=\\\"100\\\"><circle cx=\\\"50\\\" cy=\\\"50\\\" r=\\\"30\\\" fill=\\\"gray\\\" stroke=\\\"black\\\" stroke-width=\\\"4\\\" /></svg>\",\"<svg height=\\\"100\\\" width=\\\"100\\\"><circle cx=\\\"50\\\" cy=\\\"50\\\" r=\\\"30\\\" fill=\\\"white\\\" stroke=\\\"black\\\" stroke-width=\\\"4\\\" /></svg>\",\"<svg height=\\\"100\\\" width=\\\"100\\\"><circle cx=\\\"50\\\" cy=\\\"50\\\" r=\\\"30\\\" fill=\\\"gray\\\" stroke=\\\"black\\\" stroke-width=\\\"4\\\" /></svg>\",\"<svg height=\\\"100\\\" width=\\\"100\\\"><circle cx=\\\"50\\\" cy=\\\"50\\\" r=\\\"30\\\" fill=\\\"white\\\" stroke=\\\"black\\\" stroke-width=\\\"4\\\" /></svg>\",\"<svg height=\\\"100\\\" width=\\\"100\\\"><circle cx=\\\"50\\\" cy=\\\"50\\\" r=\\\"30\\\" fill=\\\"gray\\\" stroke=\\\"black\\\" stroke-width=\\\"4\\\" /></svg>\",\"<svg height=\\\"100\\\" width=\\\"100\\\"><circle cx=\\\"50\\\" cy=\\\"50\\\" r=\\\"30\\\" fill=\\\"white\\\" stroke=\\\"black\\\" stroke-width=\\\"4\\\" /></svg>\"]",
		"key_press": "[70]",
		"period_ms": 1800,
		"first_flash_ms": 680,
		"flash_time_diff": -220,
		"trial_type": "multi-stim-multi-response",
		"trial_index": 17,
		"time_elapsed": 271500,
		"internal_node_id": "0.0-2.0-15.0",
		"respond_longer": false,
		"response_time": 3355
	},
	{
		"rt": "[6335]",
		"stimulus": "[\"<svg height=\\\"100\\\" width=\\\"100\\\"><circle cx=\\\"50\\\" cy=\\\"50\\\" r=\\\"30\\\" fill=\\\"gray\\\" stroke=\\\"black\\\" stroke-width=\\\"4\\\" /></svg>\",\"<svg height=\\\"100\\\" width=\\\"100\\\"><circle cx=\\\"50\\\" cy=\\\"50\\\" r=\\\"30\\\" fill=\\\"white\\\" stroke=\\\"black\\\" stroke-width=\\\"4\\\" /></svg>\",\"<svg height=\\\"100\\\" width=\\\"100\\\"><circle cx=\\\"50\\\" cy=\\\"50\\\" r=\\\"30\\\" fill=\\\"gray\\\" stroke=\\\"black\\\" stroke-width=\\\"4\\\" /></svg>\",\"<svg height=\\\"100\\\" width=\\\"100\\\"><circle cx=\\\"50\\\" cy=\\\"50\\\" r=\\\"30\\\" fill=\\\"white\\\" stroke=\\\"black\\\" stroke-width=\\\"4\\\" /></svg>\",\"<svg height=\\\"100\\\" width=\\\"100\\\"><circle cx=\\\"50\\\" cy=\\\"50\\\" r=\\\"30\\\" fill=\\\"gray\\\" stroke=\\\"black\\\" stroke-width=\\\"4\\\" /></svg>\",\"<svg height=\\\"100\\\" width=\\\"100\\\"><circle cx=\\\"50\\\" cy=\\\"50\\\" r=\\\"30\\\" fill=\\\"white\\\" stroke=\\\"black\\\" stroke-width=\\\"4\\\" /></svg>\",\"<svg height=\\\"100\\\" width=\\\"100\\\"><circle cx=\\\"50\\\" cy=\\\"50\\\" r=\\\"30\\\" fill=\\\"gray\\\" stroke=\\\"black\\\" stroke-width=\\\"4\\\" /></svg>\",\"<svg height=\\\"100\\\" width=\\\"100\\\"><circle cx=\\\"50\\\" cy=\\\"50\\\" r=\\\"30\\\" fill=\\\"white\\\" stroke=\\\"black\\\" stroke-width=\\\"4\\\" /></svg>\"]",
		"key_press": "[74]",
		"period_ms": 1600,
		"first_flash_ms": 1100,
		"flash_time_diff": 300,
		"trial_type": "multi-stim-multi-response",
		"trial_index": 18,
		"time_elapsed": 280074,
		"internal_node_id": "0.0-2.0-16.0",
		"respond_longer": true,
		"response_time": 3635
	},
	{
		"rt": "[5507]",
		"stimulus": "[\"<svg height=\\\"100\\\" width=\\\"100\\\"><circle cx=\\\"50\\\" cy=\\\"50\\\" r=\\\"30\\\" fill=\\\"gray\\\" stroke=\\\"black\\\" stroke-width=\\\"4\\\" /></svg>\",\"<svg height=\\\"100\\\" width=\\\"100\\\"><circle cx=\\\"50\\\" cy=\\\"50\\\" r=\\\"30\\\" fill=\\\"white\\\" stroke=\\\"black\\\" stroke-width=\\\"4\\\" /></svg>\",\"<svg height=\\\"100\\\" width=\\\"100\\\"><circle cx=\\\"50\\\" cy=\\\"50\\\" r=\\\"30\\\" fill=\\\"gray\\\" stroke=\\\"black\\\" stroke-width=\\\"4\\\" /></svg>\",\"<svg height=\\\"100\\\" width=\\\"100\\\"><circle cx=\\\"50\\\" cy=\\\"50\\\" r=\\\"30\\\" fill=\\\"white\\\" stroke=\\\"black\\\" stroke-width=\\\"4\\\" /></svg>\",\"<svg height=\\\"100\\\" width=\\\"100\\\"><circle cx=\\\"50\\\" cy=\\\"50\\\" r=\\\"30\\\" fill=\\\"gray\\\" stroke=\\\"black\\\" stroke-width=\\\"4\\\" /></svg>\",\"<svg height=\\\"100\\\" width=\\\"100\\\"><circle cx=\\\"50\\\" cy=\\\"50\\\" r=\\\"30\\\" fill=\\\"white\\\" stroke=\\\"black\\\" stroke-width=\\\"4\\\" /></svg>\",\"<svg height=\\\"100\\\" width=\\\"100\\\"><circle cx=\\\"50\\\" cy=\\\"50\\\" r=\\\"30\\\" fill=\\\"gray\\\" stroke=\\\"black\\\" stroke-width=\\\"4\\\" /></svg>\",\"<svg height=\\\"100\\\" width=\\\"100\\\"><circle cx=\\\"50\\\" cy=\\\"50\\\" r=\\\"30\\\" fill=\\\"white\\\" stroke=\\\"black\\\" stroke-width=\\\"4\\\" /></svg>\"]",
		"key_press": "[74]",
		"period_ms": 1400,
		"first_flash_ms": 560,
		"flash_time_diff": -140,
		"trial_type": "multi-stim-multi-response",
		"trial_index": 19,
		"time_elapsed": 287627,
		"internal_node_id": "0.0-2.0-17.0",
		"respond_longer": true,
		"response_time": 3547
	},
	{
		"rt": "[5935]",
		"stimulus": "[\"<svg height=\\\"100\\\" width=\\\"100\\\"><circle cx=\\\"50\\\" cy=\\\"50\\\" r=\\\"30\\\" fill=\\\"gray\\\" stroke=\\\"black\\\" stroke-width=\\\"4\\\" /></svg>\",\"<svg height=\\\"100\\\" width=\\\"100\\\"><circle cx=\\\"50\\\" cy=\\\"50\\\" r=\\\"30\\\" fill=\\\"white\\\" stroke=\\\"black\\\" stroke-width=\\\"4\\\" /></svg>\",\"<svg height=\\\"100\\\" width=\\\"100\\\"><circle cx=\\\"50\\\" cy=\\\"50\\\" r=\\\"30\\\" fill=\\\"gray\\\" stroke=\\\"black\\\" stroke-width=\\\"4\\\" /></svg>\",\"<svg height=\\\"100\\\" width=\\\"100\\\"><circle cx=\\\"50\\\" cy=\\\"50\\\" r=\\\"30\\\" fill=\\\"white\\\" stroke=\\\"black\\\" stroke-width=\\\"4\\\" /></svg>\",\"<svg height=\\\"100\\\" width=\\\"100\\\"><circle cx=\\\"50\\\" cy=\\\"50\\\" r=\\\"30\\\" fill=\\\"gray\\\" stroke=\\\"black\\\" stroke-width=\\\"4\\\" /></svg>\",\"<svg height=\\\"100\\\" width=\\\"100\\\"><circle cx=\\\"50\\\" cy=\\\"50\\\" r=\\\"30\\\" fill=\\\"white\\\" stroke=\\\"black\\\" stroke-width=\\\"4\\\" /></svg>\",\"<svg height=\\\"100\\\" width=\\\"100\\\"><circle cx=\\\"50\\\" cy=\\\"50\\\" r=\\\"30\\\" fill=\\\"gray\\\" stroke=\\\"black\\\" stroke-width=\\\"4\\\" /></svg>\",\"<svg height=\\\"100\\\" width=\\\"100\\\"><circle cx=\\\"50\\\" cy=\\\"50\\\" r=\\\"30\\\" fill=\\\"white\\\" stroke=\\\"black\\\" stroke-width=\\\"4\\\" /></svg>\"]",
		"key_press": "[74]",
		"period_ms": 1400,
		"first_flash_ms": 640,
		"flash_time_diff": -60,
		"trial_type": "multi-stim-multi-response",
		"trial_index": 20,
		"time_elapsed": 294656,
		"internal_node_id": "0.0-2.0-18.0",
		"respond_longer": true,
		"response_time": 3895
	},
	{
		"rt": "[5543]",
		"stimulus": "[\"<svg height=\\\"100\\\" width=\\\"100\\\"><circle cx=\\\"50\\\" cy=\\\"50\\\" r=\\\"30\\\" fill=\\\"gray\\\" stroke=\\\"black\\\" stroke-width=\\\"4\\\" /></svg>\",\"<svg height=\\\"100\\\" width=\\\"100\\\"><circle cx=\\\"50\\\" cy=\\\"50\\\" r=\\\"30\\\" fill=\\\"white\\\" stroke=\\\"black\\\" stroke-width=\\\"4\\\" /></svg>\",\"<svg height=\\\"100\\\" width=\\\"100\\\"><circle cx=\\\"50\\\" cy=\\\"50\\\" r=\\\"30\\\" fill=\\\"gray\\\" stroke=\\\"black\\\" stroke-width=\\\"4\\\" /></svg>\",\"<svg height=\\\"100\\\" width=\\\"100\\\"><circle cx=\\\"50\\\" cy=\\\"50\\\" r=\\\"30\\\" fill=\\\"white\\\" stroke=\\\"black\\\" stroke-width=\\\"4\\\" /></svg>\",\"<svg height=\\\"100\\\" width=\\\"100\\\"><circle cx=\\\"50\\\" cy=\\\"50\\\" r=\\\"30\\\" fill=\\\"gray\\\" stroke=\\\"black\\\" stroke-width=\\\"4\\\" /></svg>\",\"<svg height=\\\"100\\\" width=\\\"100\\\"><circle cx=\\\"50\\\" cy=\\\"50\\\" r=\\\"30\\\" fill=\\\"white\\\" stroke=\\\"black\\\" stroke-width=\\\"4\\\" /></svg>\",\"<svg height=\\\"100\\\" width=\\\"100\\\"><circle cx=\\\"50\\\" cy=\\\"50\\\" r=\\\"30\\\" fill=\\\"gray\\\" stroke=\\\"black\\\" stroke-width=\\\"4\\\" /></svg>\",\"<svg height=\\\"100\\\" width=\\\"100\\\"><circle cx=\\\"50\\\" cy=\\\"50\\\" r=\\\"30\\\" fill=\\\"white\\\" stroke=\\\"black\\\" stroke-width=\\\"4\\\" /></svg>\"]",
		"key_press": "[70]",
		"period_ms": 1600,
		"first_flash_ms": 780,
		"flash_time_diff": -20,
		"trial_type": "multi-stim-multi-response",
		"trial_index": 21,
		"time_elapsed": 302043,
		"internal_node_id": "0.0-2.0-19.0",
		"respond_longer": false,
		"response_time": 3163
	},
	{
		"rt": "[5503]",
		"stimulus": "[\"<svg height=\\\"100\\\" width=\\\"100\\\"><circle cx=\\\"50\\\" cy=\\\"50\\\" r=\\\"30\\\" fill=\\\"gray\\\" stroke=\\\"black\\\" stroke-width=\\\"4\\\" /></svg>\",\"<svg height=\\\"100\\\" width=\\\"100\\\"><circle cx=\\\"50\\\" cy=\\\"50\\\" r=\\\"30\\\" fill=\\\"white\\\" stroke=\\\"black\\\" stroke-width=\\\"4\\\" /></svg>\",\"<svg height=\\\"100\\\" width=\\\"100\\\"><circle cx=\\\"50\\\" cy=\\\"50\\\" r=\\\"30\\\" fill=\\\"gray\\\" stroke=\\\"black\\\" stroke-width=\\\"4\\\" /></svg>\",\"<svg height=\\\"100\\\" width=\\\"100\\\"><circle cx=\\\"50\\\" cy=\\\"50\\\" r=\\\"30\\\" fill=\\\"white\\\" stroke=\\\"black\\\" stroke-width=\\\"4\\\" /></svg>\",\"<svg height=\\\"100\\\" width=\\\"100\\\"><circle cx=\\\"50\\\" cy=\\\"50\\\" r=\\\"30\\\" fill=\\\"gray\\\" stroke=\\\"black\\\" stroke-width=\\\"4\\\" /></svg>\",\"<svg height=\\\"100\\\" width=\\\"100\\\"><circle cx=\\\"50\\\" cy=\\\"50\\\" r=\\\"30\\\" fill=\\\"white\\\" stroke=\\\"black\\\" stroke-width=\\\"4\\\" /></svg>\",\"<svg height=\\\"100\\\" width=\\\"100\\\"><circle cx=\\\"50\\\" cy=\\\"50\\\" r=\\\"30\\\" fill=\\\"gray\\\" stroke=\\\"black\\\" stroke-width=\\\"4\\\" /></svg>\",\"<svg height=\\\"100\\\" width=\\\"100\\\"><circle cx=\\\"50\\\" cy=\\\"50\\\" r=\\\"30\\\" fill=\\\"white\\\" stroke=\\\"black\\\" stroke-width=\\\"4\\\" /></svg>\"]",
		"key_press": "[70]",
		"period_ms": 1600,
		"first_flash_ms": 860,
		"flash_time_diff": 60,
		"trial_type": "multi-stim-multi-response",
		"trial_index": 22,
		"time_elapsed": 308647,
		"internal_node_id": "0.0-2.0-20.0",
		"respond_longer": false,
		"response_time": 3043
	},
	{
		"rt": "[5921]",
		"stimulus": "[\"<svg height=\\\"100\\\" width=\\\"100\\\"><circle cx=\\\"50\\\" cy=\\\"50\\\" r=\\\"30\\\" fill=\\\"gray\\\" stroke=\\\"black\\\" stroke-width=\\\"4\\\" /></svg>\",\"<svg height=\\\"100\\\" width=\\\"100\\\"><circle cx=\\\"50\\\" cy=\\\"50\\\" r=\\\"30\\\" fill=\\\"white\\\" stroke=\\\"black\\\" stroke-width=\\\"4\\\" /></svg>\",\"<svg height=\\\"100\\\" width=\\\"100\\\"><circle cx=\\\"50\\\" cy=\\\"50\\\" r=\\\"30\\\" fill=\\\"gray\\\" stroke=\\\"black\\\" stroke-width=\\\"4\\\" /></svg>\",\"<svg height=\\\"100\\\" width=\\\"100\\\"><circle cx=\\\"50\\\" cy=\\\"50\\\" r=\\\"30\\\" fill=\\\"white\\\" stroke=\\\"black\\\" stroke-width=\\\"4\\\" /></svg>\",\"<svg height=\\\"100\\\" width=\\\"100\\\"><circle cx=\\\"50\\\" cy=\\\"50\\\" r=\\\"30\\\" fill=\\\"gray\\\" stroke=\\\"black\\\" stroke-width=\\\"4\\\" /></svg>\",\"<svg height=\\\"100\\\" width=\\\"100\\\"><circle cx=\\\"50\\\" cy=\\\"50\\\" r=\\\"30\\\" fill=\\\"white\\\" stroke=\\\"black\\\" stroke-width=\\\"4\\\" /></svg>\",\"<svg height=\\\"100\\\" width=\\\"100\\\"><circle cx=\\\"50\\\" cy=\\\"50\\\" r=\\\"30\\\" fill=\\\"gray\\\" stroke=\\\"black\\\" stroke-width=\\\"4\\\" /></svg>\",\"<svg height=\\\"100\\\" width=\\\"100\\\"><circle cx=\\\"50\\\" cy=\\\"50\\\" r=\\\"30\\\" fill=\\\"white\\\" stroke=\\\"black\\\" stroke-width=\\\"4\\\" /></svg>\"]",
		"key_press": "[70]",
		"period_ms": 1400,
		"first_flash_ms": 680,
		"flash_time_diff": -20,
		"trial_type": "multi-stim-multi-response",
		"trial_index": 23,
		"time_elapsed": 315338,
		"internal_node_id": "0.0-2.0-21.0",
		"respond_longer": false,
		"response_time": 3841
	},
	{
		"rt": "[4554]",
		"stimulus": "[\"<svg height=\\\"100\\\" width=\\\"100\\\"><circle cx=\\\"50\\\" cy=\\\"50\\\" r=\\\"30\\\" fill=\\\"gray\\\" stroke=\\\"black\\\" stroke-width=\\\"4\\\" /></svg>\",\"<svg height=\\\"100\\\" width=\\\"100\\\"><circle cx=\\\"50\\\" cy=\\\"50\\\" r=\\\"30\\\" fill=\\\"white\\\" stroke=\\\"black\\\" stroke-width=\\\"4\\\" /></svg>\",\"<svg height=\\\"100\\\" width=\\\"100\\\"><circle cx=\\\"50\\\" cy=\\\"50\\\" r=\\\"30\\\" fill=\\\"gray\\\" stroke=\\\"black\\\" stroke-width=\\\"4\\\" /></svg>\",\"<svg height=\\\"100\\\" width=\\\"100\\\"><circle cx=\\\"50\\\" cy=\\\"50\\\" r=\\\"30\\\" fill=\\\"white\\\" stroke=\\\"black\\\" stroke-width=\\\"4\\\" /></svg>\",\"<svg height=\\\"100\\\" width=\\\"100\\\"><circle cx=\\\"50\\\" cy=\\\"50\\\" r=\\\"30\\\" fill=\\\"gray\\\" stroke=\\\"black\\\" stroke-width=\\\"4\\\" /></svg>\",\"<svg height=\\\"100\\\" width=\\\"100\\\"><circle cx=\\\"50\\\" cy=\\\"50\\\" r=\\\"30\\\" fill=\\\"white\\\" stroke=\\\"black\\\" stroke-width=\\\"4\\\" /></svg>\",\"<svg height=\\\"100\\\" width=\\\"100\\\"><circle cx=\\\"50\\\" cy=\\\"50\\\" r=\\\"30\\\" fill=\\\"gray\\\" stroke=\\\"black\\\" stroke-width=\\\"4\\\" /></svg>\",\"<svg height=\\\"100\\\" width=\\\"100\\\"><circle cx=\\\"50\\\" cy=\\\"50\\\" r=\\\"30\\\" fill=\\\"white\\\" stroke=\\\"black\\\" stroke-width=\\\"4\\\" /></svg>\"]",
		"key_press": "[74]",
		"period_ms": 1400,
		"first_flash_ms": 520,
		"flash_time_diff": -180,
		"trial_type": "multi-stim-multi-response",
		"trial_index": 24,
		"time_elapsed": 321490,
		"internal_node_id": "0.0-2.0-22.0",
		"respond_longer": true,
		"response_time": 2634
	},
	{
		"rt": "[7053]",
		"stimulus": "[\"<svg height=\\\"100\\\" width=\\\"100\\\"><circle cx=\\\"50\\\" cy=\\\"50\\\" r=\\\"30\\\" fill=\\\"gray\\\" stroke=\\\"black\\\" stroke-width=\\\"4\\\" /></svg>\",\"<svg height=\\\"100\\\" width=\\\"100\\\"><circle cx=\\\"50\\\" cy=\\\"50\\\" r=\\\"30\\\" fill=\\\"white\\\" stroke=\\\"black\\\" stroke-width=\\\"4\\\" /></svg>\",\"<svg height=\\\"100\\\" width=\\\"100\\\"><circle cx=\\\"50\\\" cy=\\\"50\\\" r=\\\"30\\\" fill=\\\"gray\\\" stroke=\\\"black\\\" stroke-width=\\\"4\\\" /></svg>\",\"<svg height=\\\"100\\\" width=\\\"100\\\"><circle cx=\\\"50\\\" cy=\\\"50\\\" r=\\\"30\\\" fill=\\\"white\\\" stroke=\\\"black\\\" stroke-width=\\\"4\\\" /></svg>\",\"<svg height=\\\"100\\\" width=\\\"100\\\"><circle cx=\\\"50\\\" cy=\\\"50\\\" r=\\\"30\\\" fill=\\\"gray\\\" stroke=\\\"black\\\" stroke-width=\\\"4\\\" /></svg>\",\"<svg height=\\\"100\\\" width=\\\"100\\\"><circle cx=\\\"50\\\" cy=\\\"50\\\" r=\\\"30\\\" fill=\\\"white\\\" stroke=\\\"black\\\" stroke-width=\\\"4\\\" /></svg>\",\"<svg height=\\\"100\\\" width=\\\"100\\\"><circle cx=\\\"50\\\" cy=\\\"50\\\" r=\\\"30\\\" fill=\\\"gray\\\" stroke=\\\"black\\\" stroke-width=\\\"4\\\" /></svg>\",\"<svg height=\\\"100\\\" width=\\\"100\\\"><circle cx=\\\"50\\\" cy=\\\"50\\\" r=\\\"30\\\" fill=\\\"white\\\" stroke=\\\"black\\\" stroke-width=\\\"4\\\" /></svg>\"]",
		"key_press": "[74]",
		"period_ms": 1800,
		"first_flash_ms": 1120,
		"flash_time_diff": 220,
		"trial_type": "multi-stim-multi-response",
		"trial_index": 25,
		"time_elapsed": 330065,
		"internal_node_id": "0.0-2.0-23.0",
		"respond_longer": true,
		"response_time": 4133
	},
	{
		"rt": "[6076]",
		"stimulus": "[\"<svg height=\\\"100\\\" width=\\\"100\\\"><circle cx=\\\"50\\\" cy=\\\"50\\\" r=\\\"30\\\" fill=\\\"gray\\\" stroke=\\\"black\\\" stroke-width=\\\"4\\\" /></svg>\",\"<svg height=\\\"100\\\" width=\\\"100\\\"><circle cx=\\\"50\\\" cy=\\\"50\\\" r=\\\"30\\\" fill=\\\"white\\\" stroke=\\\"black\\\" stroke-width=\\\"4\\\" /></svg>\",\"<svg height=\\\"100\\\" width=\\\"100\\\"><circle cx=\\\"50\\\" cy=\\\"50\\\" r=\\\"30\\\" fill=\\\"gray\\\" stroke=\\\"black\\\" stroke-width=\\\"4\\\" /></svg>\",\"<svg height=\\\"100\\\" width=\\\"100\\\"><circle cx=\\\"50\\\" cy=\\\"50\\\" r=\\\"30\\\" fill=\\\"white\\\" stroke=\\\"black\\\" stroke-width=\\\"4\\\" /></svg>\",\"<svg height=\\\"100\\\" width=\\\"100\\\"><circle cx=\\\"50\\\" cy=\\\"50\\\" r=\\\"30\\\" fill=\\\"gray\\\" stroke=\\\"black\\\" stroke-width=\\\"4\\\" /></svg>\",\"<svg height=\\\"100\\\" width=\\\"100\\\"><circle cx=\\\"50\\\" cy=\\\"50\\\" r=\\\"30\\\" fill=\\\"white\\\" stroke=\\\"black\\\" stroke-width=\\\"4\\\" /></svg>\",\"<svg height=\\\"100\\\" width=\\\"100\\\"><circle cx=\\\"50\\\" cy=\\\"50\\\" r=\\\"30\\\" fill=\\\"gray\\\" stroke=\\\"black\\\" stroke-width=\\\"4\\\" /></svg>\",\"<svg height=\\\"100\\\" width=\\\"100\\\"><circle cx=\\\"50\\\" cy=\\\"50\\\" r=\\\"30\\\" fill=\\\"white\\\" stroke=\\\"black\\\" stroke-width=\\\"4\\\" /></svg>\"]",
		"key_press": "[74]",
		"period_ms": 1800,
		"first_flash_ms": 1000,
		"flash_time_diff": 100,
		"trial_type": "multi-stim-multi-response",
		"trial_index": 26,
		"time_elapsed": 337725,
		"internal_node_id": "0.0-2.0-24.0",
		"respond_longer": true,
		"response_time": 3276
	},
	{
		"rt": "[5085]",
		"stimulus": "[\"<svg height=\\\"100\\\" width=\\\"100\\\"><circle cx=\\\"50\\\" cy=\\\"50\\\" r=\\\"30\\\" fill=\\\"gray\\\" stroke=\\\"black\\\" stroke-width=\\\"4\\\" /></svg>\",\"<svg height=\\\"100\\\" width=\\\"100\\\"><circle cx=\\\"50\\\" cy=\\\"50\\\" r=\\\"30\\\" fill=\\\"white\\\" stroke=\\\"black\\\" stroke-width=\\\"4\\\" /></svg>\",\"<svg height=\\\"100\\\" width=\\\"100\\\"><circle cx=\\\"50\\\" cy=\\\"50\\\" r=\\\"30\\\" fill=\\\"gray\\\" stroke=\\\"black\\\" stroke-width=\\\"4\\\" /></svg>\",\"<svg height=\\\"100\\\" width=\\\"100\\\"><circle cx=\\\"50\\\" cy=\\\"50\\\" r=\\\"30\\\" fill=\\\"white\\\" stroke=\\\"black\\\" stroke-width=\\\"4\\\" /></svg>\",\"<svg height=\\\"100\\\" width=\\\"100\\\"><circle cx=\\\"50\\\" cy=\\\"50\\\" r=\\\"30\\\" fill=\\\"gray\\\" stroke=\\\"black\\\" stroke-width=\\\"4\\\" /></svg>\",\"<svg height=\\\"100\\\" width=\\\"100\\\"><circle cx=\\\"50\\\" cy=\\\"50\\\" r=\\\"30\\\" fill=\\\"white\\\" stroke=\\\"black\\\" stroke-width=\\\"4\\\" /></svg>\",\"<svg height=\\\"100\\\" width=\\\"100\\\"><circle cx=\\\"50\\\" cy=\\\"50\\\" r=\\\"30\\\" fill=\\\"gray\\\" stroke=\\\"black\\\" stroke-width=\\\"4\\\" /></svg>\",\"<svg height=\\\"100\\\" width=\\\"100\\\"><circle cx=\\\"50\\\" cy=\\\"50\\\" r=\\\"30\\\" fill=\\\"white\\\" stroke=\\\"black\\\" stroke-width=\\\"4\\\" /></svg>\"]",
		"key_press": "[74]",
		"period_ms": 1400,
		"first_flash_ms": 440,
		"flash_time_diff": -260,
		"trial_type": "multi-stim-multi-response",
		"trial_index": 27,
		"time_elapsed": 344058,
		"internal_node_id": "0.0-2.0-25.0",
		"respond_longer": true,
		"response_time": 3245
	},
	{
		"rt": "[5450]",
		"stimulus": "[\"<svg height=\\\"100\\\" width=\\\"100\\\"><circle cx=\\\"50\\\" cy=\\\"50\\\" r=\\\"30\\\" fill=\\\"gray\\\" stroke=\\\"black\\\" stroke-width=\\\"4\\\" /></svg>\",\"<svg height=\\\"100\\\" width=\\\"100\\\"><circle cx=\\\"50\\\" cy=\\\"50\\\" r=\\\"30\\\" fill=\\\"white\\\" stroke=\\\"black\\\" stroke-width=\\\"4\\\" /></svg>\",\"<svg height=\\\"100\\\" width=\\\"100\\\"><circle cx=\\\"50\\\" cy=\\\"50\\\" r=\\\"30\\\" fill=\\\"gray\\\" stroke=\\\"black\\\" stroke-width=\\\"4\\\" /></svg>\",\"<svg height=\\\"100\\\" width=\\\"100\\\"><circle cx=\\\"50\\\" cy=\\\"50\\\" r=\\\"30\\\" fill=\\\"white\\\" stroke=\\\"black\\\" stroke-width=\\\"4\\\" /></svg>\",\"<svg height=\\\"100\\\" width=\\\"100\\\"><circle cx=\\\"50\\\" cy=\\\"50\\\" r=\\\"30\\\" fill=\\\"gray\\\" stroke=\\\"black\\\" stroke-width=\\\"4\\\" /></svg>\",\"<svg height=\\\"100\\\" width=\\\"100\\\"><circle cx=\\\"50\\\" cy=\\\"50\\\" r=\\\"30\\\" fill=\\\"white\\\" stroke=\\\"black\\\" stroke-width=\\\"4\\\" /></svg>\",\"<svg height=\\\"100\\\" width=\\\"100\\\"><circle cx=\\\"50\\\" cy=\\\"50\\\" r=\\\"30\\\" fill=\\\"gray\\\" stroke=\\\"black\\\" stroke-width=\\\"4\\\" /></svg>\",\"<svg height=\\\"100\\\" width=\\\"100\\\"><circle cx=\\\"50\\\" cy=\\\"50\\\" r=\\\"30\\\" fill=\\\"white\\\" stroke=\\\"black\\\" stroke-width=\\\"4\\\" /></svg>\"]",
		"key_press": "[74]",
		"period_ms": 1400,
		"first_flash_ms": 960,
		"flash_time_diff": 260,
		"trial_type": "multi-stim-multi-response",
		"trial_index": 28,
		"time_elapsed": 350377,
		"internal_node_id": "0.0-2.0-26.0",
		"respond_longer": true,
		"response_time": 3090
	},
	{
		"rt": "[6633]",
		"stimulus": "[\"<svg height=\\\"100\\\" width=\\\"100\\\"><circle cx=\\\"50\\\" cy=\\\"50\\\" r=\\\"30\\\" fill=\\\"gray\\\" stroke=\\\"black\\\" stroke-width=\\\"4\\\" /></svg>\",\"<svg height=\\\"100\\\" width=\\\"100\\\"><circle cx=\\\"50\\\" cy=\\\"50\\\" r=\\\"30\\\" fill=\\\"white\\\" stroke=\\\"black\\\" stroke-width=\\\"4\\\" /></svg>\",\"<svg height=\\\"100\\\" width=\\\"100\\\"><circle cx=\\\"50\\\" cy=\\\"50\\\" r=\\\"30\\\" fill=\\\"gray\\\" stroke=\\\"black\\\" stroke-width=\\\"4\\\" /></svg>\",\"<svg height=\\\"100\\\" width=\\\"100\\\"><circle cx=\\\"50\\\" cy=\\\"50\\\" r=\\\"30\\\" fill=\\\"white\\\" stroke=\\\"black\\\" stroke-width=\\\"4\\\" /></svg>\",\"<svg height=\\\"100\\\" width=\\\"100\\\"><circle cx=\\\"50\\\" cy=\\\"50\\\" r=\\\"30\\\" fill=\\\"gray\\\" stroke=\\\"black\\\" stroke-width=\\\"4\\\" /></svg>\",\"<svg height=\\\"100\\\" width=\\\"100\\\"><circle cx=\\\"50\\\" cy=\\\"50\\\" r=\\\"30\\\" fill=\\\"white\\\" stroke=\\\"black\\\" stroke-width=\\\"4\\\" /></svg>\",\"<svg height=\\\"100\\\" width=\\\"100\\\"><circle cx=\\\"50\\\" cy=\\\"50\\\" r=\\\"30\\\" fill=\\\"gray\\\" stroke=\\\"black\\\" stroke-width=\\\"4\\\" /></svg>\",\"<svg height=\\\"100\\\" width=\\\"100\\\"><circle cx=\\\"50\\\" cy=\\\"50\\\" r=\\\"30\\\" fill=\\\"white\\\" stroke=\\\"black\\\" stroke-width=\\\"4\\\" /></svg>\"]",
		"key_press": "[74]",
		"period_ms": 1600,
		"first_flash_ms": 780,
		"flash_time_diff": -20,
		"trial_type": "multi-stim-multi-response",
		"trial_index": 29,
		"time_elapsed": 358085,
		"internal_node_id": "0.0-2.0-27.0",
		"respond_longer": true,
		"response_time": 4253
	},
	{
		"rt": "[4174]",
		"stimulus": "[\"<svg height=\\\"100\\\" width=\\\"100\\\"><circle cx=\\\"50\\\" cy=\\\"50\\\" r=\\\"30\\\" fill=\\\"gray\\\" stroke=\\\"black\\\" stroke-width=\\\"4\\\" /></svg>\",\"<svg height=\\\"100\\\" width=\\\"100\\\"><circle cx=\\\"50\\\" cy=\\\"50\\\" r=\\\"30\\\" fill=\\\"white\\\" stroke=\\\"black\\\" stroke-width=\\\"4\\\" /></svg>\",\"<svg height=\\\"100\\\" width=\\\"100\\\"><circle cx=\\\"50\\\" cy=\\\"50\\\" r=\\\"30\\\" fill=\\\"gray\\\" stroke=\\\"black\\\" stroke-width=\\\"4\\\" /></svg>\",\"<svg height=\\\"100\\\" width=\\\"100\\\"><circle cx=\\\"50\\\" cy=\\\"50\\\" r=\\\"30\\\" fill=\\\"white\\\" stroke=\\\"black\\\" stroke-width=\\\"4\\\" /></svg>\",\"<svg height=\\\"100\\\" width=\\\"100\\\"><circle cx=\\\"50\\\" cy=\\\"50\\\" r=\\\"30\\\" fill=\\\"gray\\\" stroke=\\\"black\\\" stroke-width=\\\"4\\\" /></svg>\",\"<svg height=\\\"100\\\" width=\\\"100\\\"><circle cx=\\\"50\\\" cy=\\\"50\\\" r=\\\"30\\\" fill=\\\"white\\\" stroke=\\\"black\\\" stroke-width=\\\"4\\\" /></svg>\",\"<svg height=\\\"100\\\" width=\\\"100\\\"><circle cx=\\\"50\\\" cy=\\\"50\\\" r=\\\"30\\\" fill=\\\"gray\\\" stroke=\\\"black\\\" stroke-width=\\\"4\\\" /></svg>\",\"<svg height=\\\"100\\\" width=\\\"100\\\"><circle cx=\\\"50\\\" cy=\\\"50\\\" r=\\\"30\\\" fill=\\\"white\\\" stroke=\\\"black\\\" stroke-width=\\\"4\\\" /></svg>\"]",
		"key_press": "[74]",
		"period_ms": 1400,
		"first_flash_ms": 600,
		"flash_time_diff": -100,
		"trial_type": "multi-stim-multi-response",
		"trial_index": 30,
		"time_elapsed": 364090,
		"internal_node_id": "0.0-2.0-28.0",
		"respond_longer": true,
		"response_time": 2174
	},
	{
		"rt": "[3457]",
		"stimulus": "[\"<svg height=\\\"100\\\" width=\\\"100\\\"><circle cx=\\\"50\\\" cy=\\\"50\\\" r=\\\"30\\\" fill=\\\"gray\\\" stroke=\\\"black\\\" stroke-width=\\\"4\\\" /></svg>\",\"<svg height=\\\"100\\\" width=\\\"100\\\"><circle cx=\\\"50\\\" cy=\\\"50\\\" r=\\\"30\\\" fill=\\\"white\\\" stroke=\\\"black\\\" stroke-width=\\\"4\\\" /></svg>\",\"<svg height=\\\"100\\\" width=\\\"100\\\"><circle cx=\\\"50\\\" cy=\\\"50\\\" r=\\\"30\\\" fill=\\\"gray\\\" stroke=\\\"black\\\" stroke-width=\\\"4\\\" /></svg>\",\"<svg height=\\\"100\\\" width=\\\"100\\\"><circle cx=\\\"50\\\" cy=\\\"50\\\" r=\\\"30\\\" fill=\\\"white\\\" stroke=\\\"black\\\" stroke-width=\\\"4\\\" /></svg>\",\"<svg height=\\\"100\\\" width=\\\"100\\\"><circle cx=\\\"50\\\" cy=\\\"50\\\" r=\\\"30\\\" fill=\\\"gray\\\" stroke=\\\"black\\\" stroke-width=\\\"4\\\" /></svg>\",\"<svg height=\\\"100\\\" width=\\\"100\\\"><circle cx=\\\"50\\\" cy=\\\"50\\\" r=\\\"30\\\" fill=\\\"white\\\" stroke=\\\"black\\\" stroke-width=\\\"4\\\" /></svg>\",\"<svg height=\\\"100\\\" width=\\\"100\\\"><circle cx=\\\"50\\\" cy=\\\"50\\\" r=\\\"30\\\" fill=\\\"gray\\\" stroke=\\\"black\\\" stroke-width=\\\"4\\\" /></svg>\",\"<svg height=\\\"100\\\" width=\\\"100\\\"><circle cx=\\\"50\\\" cy=\\\"50\\\" r=\\\"30\\\" fill=\\\"white\\\" stroke=\\\"black\\\" stroke-width=\\\"4\\\" /></svg>\"]",
		"key_press": "[70]",
		"period_ms": 1600,
		"first_flash_ms": 540,
		"flash_time_diff": -260,
		"trial_type": "multi-stim-multi-response",
		"trial_index": 31,
		"time_elapsed": 368515,
		"internal_node_id": "0.0-2.0-29.0",
		"respond_longer": false,
		"response_time": 1317
	},
	{
		"rt": "[5488]",
		"stimulus": "[\"<svg height=\\\"100\\\" width=\\\"100\\\"><circle cx=\\\"50\\\" cy=\\\"50\\\" r=\\\"30\\\" fill=\\\"gray\\\" stroke=\\\"black\\\" stroke-width=\\\"4\\\" /></svg>\",\"<svg height=\\\"100\\\" width=\\\"100\\\"><circle cx=\\\"50\\\" cy=\\\"50\\\" r=\\\"30\\\" fill=\\\"white\\\" stroke=\\\"black\\\" stroke-width=\\\"4\\\" /></svg>\",\"<svg height=\\\"100\\\" width=\\\"100\\\"><circle cx=\\\"50\\\" cy=\\\"50\\\" r=\\\"30\\\" fill=\\\"gray\\\" stroke=\\\"black\\\" stroke-width=\\\"4\\\" /></svg>\",\"<svg height=\\\"100\\\" width=\\\"100\\\"><circle cx=\\\"50\\\" cy=\\\"50\\\" r=\\\"30\\\" fill=\\\"white\\\" stroke=\\\"black\\\" stroke-width=\\\"4\\\" /></svg>\",\"<svg height=\\\"100\\\" width=\\\"100\\\"><circle cx=\\\"50\\\" cy=\\\"50\\\" r=\\\"30\\\" fill=\\\"gray\\\" stroke=\\\"black\\\" stroke-width=\\\"4\\\" /></svg>\",\"<svg height=\\\"100\\\" width=\\\"100\\\"><circle cx=\\\"50\\\" cy=\\\"50\\\" r=\\\"30\\\" fill=\\\"white\\\" stroke=\\\"black\\\" stroke-width=\\\"4\\\" /></svg>\",\"<svg height=\\\"100\\\" width=\\\"100\\\"><circle cx=\\\"50\\\" cy=\\\"50\\\" r=\\\"30\\\" fill=\\\"gray\\\" stroke=\\\"black\\\" stroke-width=\\\"4\\\" /></svg>\",\"<svg height=\\\"100\\\" width=\\\"100\\\"><circle cx=\\\"50\\\" cy=\\\"50\\\" r=\\\"30\\\" fill=\\\"white\\\" stroke=\\\"black\\\" stroke-width=\\\"4\\\" /></svg>\"]",
		"key_press": "[70]",
		"period_ms": 1600,
		"first_flash_ms": 780,
		"flash_time_diff": -20,
		"trial_type": "multi-stim-multi-response",
		"trial_index": 32,
		"time_elapsed": 375661,
		"internal_node_id": "0.0-2.0-30.0",
		"respond_longer": false,
		"response_time": 3108
	},
	{
		"rt": "[5980]",
		"stimulus": "[\"<svg height=\\\"100\\\" width=\\\"100\\\"><circle cx=\\\"50\\\" cy=\\\"50\\\" r=\\\"30\\\" fill=\\\"gray\\\" stroke=\\\"black\\\" stroke-width=\\\"4\\\" /></svg>\",\"<svg height=\\\"100\\\" width=\\\"100\\\"><circle cx=\\\"50\\\" cy=\\\"50\\\" r=\\\"30\\\" fill=\\\"white\\\" stroke=\\\"black\\\" stroke-width=\\\"4\\\" /></svg>\",\"<svg height=\\\"100\\\" width=\\\"100\\\"><circle cx=\\\"50\\\" cy=\\\"50\\\" r=\\\"30\\\" fill=\\\"gray\\\" stroke=\\\"black\\\" stroke-width=\\\"4\\\" /></svg>\",\"<svg height=\\\"100\\\" width=\\\"100\\\"><circle cx=\\\"50\\\" cy=\\\"50\\\" r=\\\"30\\\" fill=\\\"white\\\" stroke=\\\"black\\\" stroke-width=\\\"4\\\" /></svg>\",\"<svg height=\\\"100\\\" width=\\\"100\\\"><circle cx=\\\"50\\\" cy=\\\"50\\\" r=\\\"30\\\" fill=\\\"gray\\\" stroke=\\\"black\\\" stroke-width=\\\"4\\\" /></svg>\",\"<svg height=\\\"100\\\" width=\\\"100\\\"><circle cx=\\\"50\\\" cy=\\\"50\\\" r=\\\"30\\\" fill=\\\"white\\\" stroke=\\\"black\\\" stroke-width=\\\"4\\\" /></svg>\",\"<svg height=\\\"100\\\" width=\\\"100\\\"><circle cx=\\\"50\\\" cy=\\\"50\\\" r=\\\"30\\\" fill=\\\"gray\\\" stroke=\\\"black\\\" stroke-width=\\\"4\\\" /></svg>\",\"<svg height=\\\"100\\\" width=\\\"100\\\"><circle cx=\\\"50\\\" cy=\\\"50\\\" r=\\\"30\\\" fill=\\\"white\\\" stroke=\\\"black\\\" stroke-width=\\\"4\\\" /></svg>\"]",
		"key_press": "[70]",
		"period_ms": 1800,
		"first_flash_ms": 880,
		"flash_time_diff": -20,
		"trial_type": "multi-stim-multi-response",
		"trial_index": 33,
		"time_elapsed": 382642,
		"internal_node_id": "0.0-2.0-31.0",
		"respond_longer": false,
		"response_time": 3300
	},
	{
		"rt": "[5556]",
		"stimulus": "[\"<svg height=\\\"100\\\" width=\\\"100\\\"><circle cx=\\\"50\\\" cy=\\\"50\\\" r=\\\"30\\\" fill=\\\"gray\\\" stroke=\\\"black\\\" stroke-width=\\\"4\\\" /></svg>\",\"<svg height=\\\"100\\\" width=\\\"100\\\"><circle cx=\\\"50\\\" cy=\\\"50\\\" r=\\\"30\\\" fill=\\\"white\\\" stroke=\\\"black\\\" stroke-width=\\\"4\\\" /></svg>\",\"<svg height=\\\"100\\\" width=\\\"100\\\"><circle cx=\\\"50\\\" cy=\\\"50\\\" r=\\\"30\\\" fill=\\\"gray\\\" stroke=\\\"black\\\" stroke-width=\\\"4\\\" /></svg>\",\"<svg height=\\\"100\\\" width=\\\"100\\\"><circle cx=\\\"50\\\" cy=\\\"50\\\" r=\\\"30\\\" fill=\\\"white\\\" stroke=\\\"black\\\" stroke-width=\\\"4\\\" /></svg>\",\"<svg height=\\\"100\\\" width=\\\"100\\\"><circle cx=\\\"50\\\" cy=\\\"50\\\" r=\\\"30\\\" fill=\\\"gray\\\" stroke=\\\"black\\\" stroke-width=\\\"4\\\" /></svg>\",\"<svg height=\\\"100\\\" width=\\\"100\\\"><circle cx=\\\"50\\\" cy=\\\"50\\\" r=\\\"30\\\" fill=\\\"white\\\" stroke=\\\"black\\\" stroke-width=\\\"4\\\" /></svg>\",\"<svg height=\\\"100\\\" width=\\\"100\\\"><circle cx=\\\"50\\\" cy=\\\"50\\\" r=\\\"30\\\" fill=\\\"gray\\\" stroke=\\\"black\\\" stroke-width=\\\"4\\\" /></svg>\",\"<svg height=\\\"100\\\" width=\\\"100\\\"><circle cx=\\\"50\\\" cy=\\\"50\\\" r=\\\"30\\\" fill=\\\"white\\\" stroke=\\\"black\\\" stroke-width=\\\"4\\\" /></svg>\"]",
		"key_press": "[74]",
		"period_ms": 1400,
		"first_flash_ms": 760,
		"flash_time_diff": 60,
		"trial_type": "multi-stim-multi-response",
		"trial_index": 34,
		"time_elapsed": 389528,
		"internal_node_id": "0.0-2.0-32.0",
		"respond_longer": true,
		"response_time": 3396
	},
	{
		"rt": "[6008]",
		"stimulus": "[\"<svg height=\\\"100\\\" width=\\\"100\\\"><circle cx=\\\"50\\\" cy=\\\"50\\\" r=\\\"30\\\" fill=\\\"gray\\\" stroke=\\\"black\\\" stroke-width=\\\"4\\\" /></svg>\",\"<svg height=\\\"100\\\" width=\\\"100\\\"><circle cx=\\\"50\\\" cy=\\\"50\\\" r=\\\"30\\\" fill=\\\"white\\\" stroke=\\\"black\\\" stroke-width=\\\"4\\\" /></svg>\",\"<svg height=\\\"100\\\" width=\\\"100\\\"><circle cx=\\\"50\\\" cy=\\\"50\\\" r=\\\"30\\\" fill=\\\"gray\\\" stroke=\\\"black\\\" stroke-width=\\\"4\\\" /></svg>\",\"<svg height=\\\"100\\\" width=\\\"100\\\"><circle cx=\\\"50\\\" cy=\\\"50\\\" r=\\\"30\\\" fill=\\\"white\\\" stroke=\\\"black\\\" stroke-width=\\\"4\\\" /></svg>\",\"<svg height=\\\"100\\\" width=\\\"100\\\"><circle cx=\\\"50\\\" cy=\\\"50\\\" r=\\\"30\\\" fill=\\\"gray\\\" stroke=\\\"black\\\" stroke-width=\\\"4\\\" /></svg>\",\"<svg height=\\\"100\\\" width=\\\"100\\\"><circle cx=\\\"50\\\" cy=\\\"50\\\" r=\\\"30\\\" fill=\\\"white\\\" stroke=\\\"black\\\" stroke-width=\\\"4\\\" /></svg>\",\"<svg height=\\\"100\\\" width=\\\"100\\\"><circle cx=\\\"50\\\" cy=\\\"50\\\" r=\\\"30\\\" fill=\\\"gray\\\" stroke=\\\"black\\\" stroke-width=\\\"4\\\" /></svg>\",\"<svg height=\\\"100\\\" width=\\\"100\\\"><circle cx=\\\"50\\\" cy=\\\"50\\\" r=\\\"30\\\" fill=\\\"white\\\" stroke=\\\"black\\\" stroke-width=\\\"4\\\" /></svg>\"]",
		"key_press": "[70]",
		"period_ms": 1800,
		"first_flash_ms": 1080,
		"flash_time_diff": 180,
		"trial_type": "multi-stim-multi-response",
		"trial_index": 35,
		"time_elapsed": 396737,
		"internal_node_id": "0.0-2.0-33.0",
		"respond_longer": false,
		"response_time": 3128
	},
	{
		"rt": "[5967]",
		"stimulus": "[\"<svg height=\\\"100\\\" width=\\\"100\\\"><circle cx=\\\"50\\\" cy=\\\"50\\\" r=\\\"30\\\" fill=\\\"gray\\\" stroke=\\\"black\\\" stroke-width=\\\"4\\\" /></svg>\",\"<svg height=\\\"100\\\" width=\\\"100\\\"><circle cx=\\\"50\\\" cy=\\\"50\\\" r=\\\"30\\\" fill=\\\"white\\\" stroke=\\\"black\\\" stroke-width=\\\"4\\\" /></svg>\",\"<svg height=\\\"100\\\" width=\\\"100\\\"><circle cx=\\\"50\\\" cy=\\\"50\\\" r=\\\"30\\\" fill=\\\"gray\\\" stroke=\\\"black\\\" stroke-width=\\\"4\\\" /></svg>\",\"<svg height=\\\"100\\\" width=\\\"100\\\"><circle cx=\\\"50\\\" cy=\\\"50\\\" r=\\\"30\\\" fill=\\\"white\\\" stroke=\\\"black\\\" stroke-width=\\\"4\\\" /></svg>\",\"<svg height=\\\"100\\\" width=\\\"100\\\"><circle cx=\\\"50\\\" cy=\\\"50\\\" r=\\\"30\\\" fill=\\\"gray\\\" stroke=\\\"black\\\" stroke-width=\\\"4\\\" /></svg>\",\"<svg height=\\\"100\\\" width=\\\"100\\\"><circle cx=\\\"50\\\" cy=\\\"50\\\" r=\\\"30\\\" fill=\\\"white\\\" stroke=\\\"black\\\" stroke-width=\\\"4\\\" /></svg>\",\"<svg height=\\\"100\\\" width=\\\"100\\\"><circle cx=\\\"50\\\" cy=\\\"50\\\" r=\\\"30\\\" fill=\\\"gray\\\" stroke=\\\"black\\\" stroke-width=\\\"4\\\" /></svg>\",\"<svg height=\\\"100\\\" width=\\\"100\\\"><circle cx=\\\"50\\\" cy=\\\"50\\\" r=\\\"30\\\" fill=\\\"white\\\" stroke=\\\"black\\\" stroke-width=\\\"4\\\" /></svg>\"]",
		"key_press": "[74]",
		"period_ms": 1800,
		"first_flash_ms": 960,
		"flash_time_diff": 60,
		"trial_type": "multi-stim-multi-response",
		"trial_index": 36,
		"time_elapsed": 404028,
		"internal_node_id": "0.0-2.0-34.0",
		"respond_longer": true,
		"response_time": 3207
	},
	{
		"rt": "[4655]",
		"stimulus": "[\"<svg height=\\\"100\\\" width=\\\"100\\\"><circle cx=\\\"50\\\" cy=\\\"50\\\" r=\\\"30\\\" fill=\\\"gray\\\" stroke=\\\"black\\\" stroke-width=\\\"4\\\" /></svg>\",\"<svg height=\\\"100\\\" width=\\\"100\\\"><circle cx=\\\"50\\\" cy=\\\"50\\\" r=\\\"30\\\" fill=\\\"white\\\" stroke=\\\"black\\\" stroke-width=\\\"4\\\" /></svg>\",\"<svg height=\\\"100\\\" width=\\\"100\\\"><circle cx=\\\"50\\\" cy=\\\"50\\\" r=\\\"30\\\" fill=\\\"gray\\\" stroke=\\\"black\\\" stroke-width=\\\"4\\\" /></svg>\",\"<svg height=\\\"100\\\" width=\\\"100\\\"><circle cx=\\\"50\\\" cy=\\\"50\\\" r=\\\"30\\\" fill=\\\"white\\\" stroke=\\\"black\\\" stroke-width=\\\"4\\\" /></svg>\",\"<svg height=\\\"100\\\" width=\\\"100\\\"><circle cx=\\\"50\\\" cy=\\\"50\\\" r=\\\"30\\\" fill=\\\"gray\\\" stroke=\\\"black\\\" stroke-width=\\\"4\\\" /></svg>\",\"<svg height=\\\"100\\\" width=\\\"100\\\"><circle cx=\\\"50\\\" cy=\\\"50\\\" r=\\\"30\\\" fill=\\\"white\\\" stroke=\\\"black\\\" stroke-width=\\\"4\\\" /></svg>\",\"<svg height=\\\"100\\\" width=\\\"100\\\"><circle cx=\\\"50\\\" cy=\\\"50\\\" r=\\\"30\\\" fill=\\\"gray\\\" stroke=\\\"black\\\" stroke-width=\\\"4\\\" /></svg>\",\"<svg height=\\\"100\\\" width=\\\"100\\\"><circle cx=\\\"50\\\" cy=\\\"50\\\" r=\\\"30\\\" fill=\\\"white\\\" stroke=\\\"black\\\" stroke-width=\\\"4\\\" /></svg>\"]",
		"key_press": "[70]",
		"period_ms": 1800,
		"first_flash_ms": 800,
		"flash_time_diff": -100,
		"trial_type": "multi-stim-multi-response",
		"trial_index": 37,
		"time_elapsed": 409500,
		"internal_node_id": "0.0-2.0-35.0",
		"respond_longer": false,
		"response_time": 2055
	},
	{
		"rt": "[5278]",
		"stimulus": "[\"<svg height=\\\"100\\\" width=\\\"100\\\"><circle cx=\\\"50\\\" cy=\\\"50\\\" r=\\\"30\\\" fill=\\\"gray\\\" stroke=\\\"black\\\" stroke-width=\\\"4\\\" /></svg>\",\"<svg height=\\\"100\\\" width=\\\"100\\\"><circle cx=\\\"50\\\" cy=\\\"50\\\" r=\\\"30\\\" fill=\\\"white\\\" stroke=\\\"black\\\" stroke-width=\\\"4\\\" /></svg>\",\"<svg height=\\\"100\\\" width=\\\"100\\\"><circle cx=\\\"50\\\" cy=\\\"50\\\" r=\\\"30\\\" fill=\\\"gray\\\" stroke=\\\"black\\\" stroke-width=\\\"4\\\" /></svg>\",\"<svg height=\\\"100\\\" width=\\\"100\\\"><circle cx=\\\"50\\\" cy=\\\"50\\\" r=\\\"30\\\" fill=\\\"white\\\" stroke=\\\"black\\\" stroke-width=\\\"4\\\" /></svg>\",\"<svg height=\\\"100\\\" width=\\\"100\\\"><circle cx=\\\"50\\\" cy=\\\"50\\\" r=\\\"30\\\" fill=\\\"gray\\\" stroke=\\\"black\\\" stroke-width=\\\"4\\\" /></svg>\",\"<svg height=\\\"100\\\" width=\\\"100\\\"><circle cx=\\\"50\\\" cy=\\\"50\\\" r=\\\"30\\\" fill=\\\"white\\\" stroke=\\\"black\\\" stroke-width=\\\"4\\\" /></svg>\",\"<svg height=\\\"100\\\" width=\\\"100\\\"><circle cx=\\\"50\\\" cy=\\\"50\\\" r=\\\"30\\\" fill=\\\"gray\\\" stroke=\\\"black\\\" stroke-width=\\\"4\\\" /></svg>\",\"<svg height=\\\"100\\\" width=\\\"100\\\"><circle cx=\\\"50\\\" cy=\\\"50\\\" r=\\\"30\\\" fill=\\\"white\\\" stroke=\\\"black\\\" stroke-width=\\\"4\\\" /></svg>\"]",
		"key_press": "[74]",
		"period_ms": 1400,
		"first_flash_ms": 760,
		"flash_time_diff": 60,
		"trial_type": "multi-stim-multi-response",
		"trial_index": 38,
		"time_elapsed": 415920,
		"internal_node_id": "0.0-2.0-36.0",
		"respond_longer": true,
		"response_time": 3118
	},
	{
		"rt": "[4188]",
		"stimulus": "[\"<svg height=\\\"100\\\" width=\\\"100\\\"><circle cx=\\\"50\\\" cy=\\\"50\\\" r=\\\"30\\\" fill=\\\"gray\\\" stroke=\\\"black\\\" stroke-width=\\\"4\\\" /></svg>\",\"<svg height=\\\"100\\\" width=\\\"100\\\"><circle cx=\\\"50\\\" cy=\\\"50\\\" r=\\\"30\\\" fill=\\\"white\\\" stroke=\\\"black\\\" stroke-width=\\\"4\\\" /></svg>\",\"<svg height=\\\"100\\\" width=\\\"100\\\"><circle cx=\\\"50\\\" cy=\\\"50\\\" r=\\\"30\\\" fill=\\\"gray\\\" stroke=\\\"black\\\" stroke-width=\\\"4\\\" /></svg>\",\"<svg height=\\\"100\\\" width=\\\"100\\\"><circle cx=\\\"50\\\" cy=\\\"50\\\" r=\\\"30\\\" fill=\\\"white\\\" stroke=\\\"black\\\" stroke-width=\\\"4\\\" /></svg>\",\"<svg height=\\\"100\\\" width=\\\"100\\\"><circle cx=\\\"50\\\" cy=\\\"50\\\" r=\\\"30\\\" fill=\\\"gray\\\" stroke=\\\"black\\\" stroke-width=\\\"4\\\" /></svg>\",\"<svg height=\\\"100\\\" width=\\\"100\\\"><circle cx=\\\"50\\\" cy=\\\"50\\\" r=\\\"30\\\" fill=\\\"white\\\" stroke=\\\"black\\\" stroke-width=\\\"4\\\" /></svg>\",\"<svg height=\\\"100\\\" width=\\\"100\\\"><circle cx=\\\"50\\\" cy=\\\"50\\\" r=\\\"30\\\" fill=\\\"gray\\\" stroke=\\\"black\\\" stroke-width=\\\"4\\\" /></svg>\",\"<svg height=\\\"100\\\" width=\\\"100\\\"><circle cx=\\\"50\\\" cy=\\\"50\\\" r=\\\"30\\\" fill=\\\"white\\\" stroke=\\\"black\\\" stroke-width=\\\"4\\\" /></svg>\"]",
		"key_press": "[70]",
		"period_ms": 1600,
		"first_flash_ms": 620,
		"flash_time_diff": -180,
		"trial_type": "multi-stim-multi-response",
		"trial_index": 39,
		"time_elapsed": 421177,
		"internal_node_id": "0.0-2.0-37.0",
		"respond_longer": false,
		"response_time": 1968
	},
	{
		"rt": "[3567]",
		"stimulus": "[\"<svg height=\\\"100\\\" width=\\\"100\\\"><circle cx=\\\"50\\\" cy=\\\"50\\\" r=\\\"30\\\" fill=\\\"gray\\\" stroke=\\\"black\\\" stroke-width=\\\"4\\\" /></svg>\",\"<svg height=\\\"100\\\" width=\\\"100\\\"><circle cx=\\\"50\\\" cy=\\\"50\\\" r=\\\"30\\\" fill=\\\"white\\\" stroke=\\\"black\\\" stroke-width=\\\"4\\\" /></svg>\",\"<svg height=\\\"100\\\" width=\\\"100\\\"><circle cx=\\\"50\\\" cy=\\\"50\\\" r=\\\"30\\\" fill=\\\"gray\\\" stroke=\\\"black\\\" stroke-width=\\\"4\\\" /></svg>\",\"<svg height=\\\"100\\\" width=\\\"100\\\"><circle cx=\\\"50\\\" cy=\\\"50\\\" r=\\\"30\\\" fill=\\\"white\\\" stroke=\\\"black\\\" stroke-width=\\\"4\\\" /></svg>\",\"<svg height=\\\"100\\\" width=\\\"100\\\"><circle cx=\\\"50\\\" cy=\\\"50\\\" r=\\\"30\\\" fill=\\\"gray\\\" stroke=\\\"black\\\" stroke-width=\\\"4\\\" /></svg>\",\"<svg height=\\\"100\\\" width=\\\"100\\\"><circle cx=\\\"50\\\" cy=\\\"50\\\" r=\\\"30\\\" fill=\\\"white\\\" stroke=\\\"black\\\" stroke-width=\\\"4\\\" /></svg>\",\"<svg height=\\\"100\\\" width=\\\"100\\\"><circle cx=\\\"50\\\" cy=\\\"50\\\" r=\\\"30\\\" fill=\\\"gray\\\" stroke=\\\"black\\\" stroke-width=\\\"4\\\" /></svg>\",\"<svg height=\\\"100\\\" width=\\\"100\\\"><circle cx=\\\"50\\\" cy=\\\"50\\\" r=\\\"30\\\" fill=\\\"white\\\" stroke=\\\"black\\\" stroke-width=\\\"4\\\" /></svg>\"]",
		"key_press": "[70]",
		"period_ms": 1400,
		"first_flash_ms": 440,
		"flash_time_diff": -260,
		"trial_type": "multi-stim-multi-response",
		"trial_index": 40,
		"time_elapsed": 426270,
		"internal_node_id": "0.0-2.0-38.0",
		"respond_longer": false,
		"response_time": 1727
	},
	{
		"rt": "[3053]",
		"stimulus": "[\"<svg height=\\\"100\\\" width=\\\"100\\\"><circle cx=\\\"50\\\" cy=\\\"50\\\" r=\\\"30\\\" fill=\\\"gray\\\" stroke=\\\"black\\\" stroke-width=\\\"4\\\" /></svg>\",\"<svg height=\\\"100\\\" width=\\\"100\\\"><circle cx=\\\"50\\\" cy=\\\"50\\\" r=\\\"30\\\" fill=\\\"white\\\" stroke=\\\"black\\\" stroke-width=\\\"4\\\" /></svg>\",\"<svg height=\\\"100\\\" width=\\\"100\\\"><circle cx=\\\"50\\\" cy=\\\"50\\\" r=\\\"30\\\" fill=\\\"gray\\\" stroke=\\\"black\\\" stroke-width=\\\"4\\\" /></svg>\",\"<svg height=\\\"100\\\" width=\\\"100\\\"><circle cx=\\\"50\\\" cy=\\\"50\\\" r=\\\"30\\\" fill=\\\"white\\\" stroke=\\\"black\\\" stroke-width=\\\"4\\\" /></svg>\",\"<svg height=\\\"100\\\" width=\\\"100\\\"><circle cx=\\\"50\\\" cy=\\\"50\\\" r=\\\"30\\\" fill=\\\"gray\\\" stroke=\\\"black\\\" stroke-width=\\\"4\\\" /></svg>\",\"<svg height=\\\"100\\\" width=\\\"100\\\"><circle cx=\\\"50\\\" cy=\\\"50\\\" r=\\\"30\\\" fill=\\\"white\\\" stroke=\\\"black\\\" stroke-width=\\\"4\\\" /></svg>\",\"<svg height=\\\"100\\\" width=\\\"100\\\"><circle cx=\\\"50\\\" cy=\\\"50\\\" r=\\\"30\\\" fill=\\\"gray\\\" stroke=\\\"black\\\" stroke-width=\\\"4\\\" /></svg>\",\"<svg height=\\\"100\\\" width=\\\"100\\\"><circle cx=\\\"50\\\" cy=\\\"50\\\" r=\\\"30\\\" fill=\\\"white\\\" stroke=\\\"black\\\" stroke-width=\\\"4\\\" /></svg>\"]",
		"key_press": "[70]",
		"period_ms": 1600,
		"first_flash_ms": 820,
		"flash_time_diff": 20,
		"trial_type": "multi-stim-multi-response",
		"trial_index": 41,
		"time_elapsed": 431041,
		"internal_node_id": "0.0-2.0-39.0",
		"respond_longer": false,
		"response_time": 633
	},
	{
		"rt": "[3937]",
		"stimulus": "[\"<svg height=\\\"100\\\" width=\\\"100\\\"><circle cx=\\\"50\\\" cy=\\\"50\\\" r=\\\"30\\\" fill=\\\"gray\\\" stroke=\\\"black\\\" stroke-width=\\\"4\\\" /></svg>\",\"<svg height=\\\"100\\\" width=\\\"100\\\"><circle cx=\\\"50\\\" cy=\\\"50\\\" r=\\\"30\\\" fill=\\\"white\\\" stroke=\\\"black\\\" stroke-width=\\\"4\\\" /></svg>\",\"<svg height=\\\"100\\\" width=\\\"100\\\"><circle cx=\\\"50\\\" cy=\\\"50\\\" r=\\\"30\\\" fill=\\\"gray\\\" stroke=\\\"black\\\" stroke-width=\\\"4\\\" /></svg>\",\"<svg height=\\\"100\\\" width=\\\"100\\\"><circle cx=\\\"50\\\" cy=\\\"50\\\" r=\\\"30\\\" fill=\\\"white\\\" stroke=\\\"black\\\" stroke-width=\\\"4\\\" /></svg>\",\"<svg height=\\\"100\\\" width=\\\"100\\\"><circle cx=\\\"50\\\" cy=\\\"50\\\" r=\\\"30\\\" fill=\\\"gray\\\" stroke=\\\"black\\\" stroke-width=\\\"4\\\" /></svg>\",\"<svg height=\\\"100\\\" width=\\\"100\\\"><circle cx=\\\"50\\\" cy=\\\"50\\\" r=\\\"30\\\" fill=\\\"white\\\" stroke=\\\"black\\\" stroke-width=\\\"4\\\" /></svg>\",\"<svg height=\\\"100\\\" width=\\\"100\\\"><circle cx=\\\"50\\\" cy=\\\"50\\\" r=\\\"30\\\" fill=\\\"gray\\\" stroke=\\\"black\\\" stroke-width=\\\"4\\\" /></svg>\",\"<svg height=\\\"100\\\" width=\\\"100\\\"><circle cx=\\\"50\\\" cy=\\\"50\\\" r=\\\"30\\\" fill=\\\"white\\\" stroke=\\\"black\\\" stroke-width=\\\"4\\\" /></svg>\"]",
		"key_press": "[74]",
		"period_ms": 1400,
		"first_flash_ms": 800,
		"flash_time_diff": 100,
		"trial_type": "multi-stim-multi-response",
		"trial_index": 42,
		"time_elapsed": 436516,
		"internal_node_id": "0.0-2.0-40.0",
		"respond_longer": true,
		"response_time": 1737
	},
	{
		"rt": "[4824]",
		"stimulus": "[\"<svg height=\\\"100\\\" width=\\\"100\\\"><circle cx=\\\"50\\\" cy=\\\"50\\\" r=\\\"30\\\" fill=\\\"gray\\\" stroke=\\\"black\\\" stroke-width=\\\"4\\\" /></svg>\",\"<svg height=\\\"100\\\" width=\\\"100\\\"><circle cx=\\\"50\\\" cy=\\\"50\\\" r=\\\"30\\\" fill=\\\"white\\\" stroke=\\\"black\\\" stroke-width=\\\"4\\\" /></svg>\",\"<svg height=\\\"100\\\" width=\\\"100\\\"><circle cx=\\\"50\\\" cy=\\\"50\\\" r=\\\"30\\\" fill=\\\"gray\\\" stroke=\\\"black\\\" stroke-width=\\\"4\\\" /></svg>\",\"<svg height=\\\"100\\\" width=\\\"100\\\"><circle cx=\\\"50\\\" cy=\\\"50\\\" r=\\\"30\\\" fill=\\\"white\\\" stroke=\\\"black\\\" stroke-width=\\\"4\\\" /></svg>\",\"<svg height=\\\"100\\\" width=\\\"100\\\"><circle cx=\\\"50\\\" cy=\\\"50\\\" r=\\\"30\\\" fill=\\\"gray\\\" stroke=\\\"black\\\" stroke-width=\\\"4\\\" /></svg>\",\"<svg height=\\\"100\\\" width=\\\"100\\\"><circle cx=\\\"50\\\" cy=\\\"50\\\" r=\\\"30\\\" fill=\\\"white\\\" stroke=\\\"black\\\" stroke-width=\\\"4\\\" /></svg>\",\"<svg height=\\\"100\\\" width=\\\"100\\\"><circle cx=\\\"50\\\" cy=\\\"50\\\" r=\\\"30\\\" fill=\\\"gray\\\" stroke=\\\"black\\\" stroke-width=\\\"4\\\" /></svg>\",\"<svg height=\\\"100\\\" width=\\\"100\\\"><circle cx=\\\"50\\\" cy=\\\"50\\\" r=\\\"30\\\" fill=\\\"white\\\" stroke=\\\"black\\\" stroke-width=\\\"4\\\" /></svg>\"]",
		"key_press": "[70]",
		"period_ms": 1800,
		"first_flash_ms": 680,
		"flash_time_diff": -220,
		"trial_type": "multi-stim-multi-response",
		"trial_index": 43,
		"time_elapsed": 443570,
		"internal_node_id": "0.0-2.0-41.0",
		"respond_longer": false,
		"response_time": 2344
	},
	{
		"rt": "[5070]",
		"stimulus": "[\"<svg height=\\\"100\\\" width=\\\"100\\\"><circle cx=\\\"50\\\" cy=\\\"50\\\" r=\\\"30\\\" fill=\\\"gray\\\" stroke=\\\"black\\\" stroke-width=\\\"4\\\" /></svg>\",\"<svg height=\\\"100\\\" width=\\\"100\\\"><circle cx=\\\"50\\\" cy=\\\"50\\\" r=\\\"30\\\" fill=\\\"white\\\" stroke=\\\"black\\\" stroke-width=\\\"4\\\" /></svg>\",\"<svg height=\\\"100\\\" width=\\\"100\\\"><circle cx=\\\"50\\\" cy=\\\"50\\\" r=\\\"30\\\" fill=\\\"gray\\\" stroke=\\\"black\\\" stroke-width=\\\"4\\\" /></svg>\",\"<svg height=\\\"100\\\" width=\\\"100\\\"><circle cx=\\\"50\\\" cy=\\\"50\\\" r=\\\"30\\\" fill=\\\"white\\\" stroke=\\\"black\\\" stroke-width=\\\"4\\\" /></svg>\",\"<svg height=\\\"100\\\" width=\\\"100\\\"><circle cx=\\\"50\\\" cy=\\\"50\\\" r=\\\"30\\\" fill=\\\"gray\\\" stroke=\\\"black\\\" stroke-width=\\\"4\\\" /></svg>\",\"<svg height=\\\"100\\\" width=\\\"100\\\"><circle cx=\\\"50\\\" cy=\\\"50\\\" r=\\\"30\\\" fill=\\\"white\\\" stroke=\\\"black\\\" stroke-width=\\\"4\\\" /></svg>\",\"<svg height=\\\"100\\\" width=\\\"100\\\"><circle cx=\\\"50\\\" cy=\\\"50\\\" r=\\\"30\\\" fill=\\\"gray\\\" stroke=\\\"black\\\" stroke-width=\\\"4\\\" /></svg>\",\"<svg height=\\\"100\\\" width=\\\"100\\\"><circle cx=\\\"50\\\" cy=\\\"50\\\" r=\\\"30\\\" fill=\\\"white\\\" stroke=\\\"black\\\" stroke-width=\\\"4\\\" /></svg>\"]",
		"key_press": "[74]",
		"period_ms": 1800,
		"first_flash_ms": 960,
		"flash_time_diff": 60,
		"trial_type": "multi-stim-multi-response",
		"trial_index": 44,
		"time_elapsed": 449649,
		"internal_node_id": "0.0-2.0-42.0",
		"respond_longer": true,
		"response_time": 2310
	},
	{
		"rt": "[5647]",
		"stimulus": "[\"<svg height=\\\"100\\\" width=\\\"100\\\"><circle cx=\\\"50\\\" cy=\\\"50\\\" r=\\\"30\\\" fill=\\\"gray\\\" stroke=\\\"black\\\" stroke-width=\\\"4\\\" /></svg>\",\"<svg height=\\\"100\\\" width=\\\"100\\\"><circle cx=\\\"50\\\" cy=\\\"50\\\" r=\\\"30\\\" fill=\\\"white\\\" stroke=\\\"black\\\" stroke-width=\\\"4\\\" /></svg>\",\"<svg height=\\\"100\\\" width=\\\"100\\\"><circle cx=\\\"50\\\" cy=\\\"50\\\" r=\\\"30\\\" fill=\\\"gray\\\" stroke=\\\"black\\\" stroke-width=\\\"4\\\" /></svg>\",\"<svg height=\\\"100\\\" width=\\\"100\\\"><circle cx=\\\"50\\\" cy=\\\"50\\\" r=\\\"30\\\" fill=\\\"white\\\" stroke=\\\"black\\\" stroke-width=\\\"4\\\" /></svg>\",\"<svg height=\\\"100\\\" width=\\\"100\\\"><circle cx=\\\"50\\\" cy=\\\"50\\\" r=\\\"30\\\" fill=\\\"gray\\\" stroke=\\\"black\\\" stroke-width=\\\"4\\\" /></svg>\",\"<svg height=\\\"100\\\" width=\\\"100\\\"><circle cx=\\\"50\\\" cy=\\\"50\\\" r=\\\"30\\\" fill=\\\"white\\\" stroke=\\\"black\\\" stroke-width=\\\"4\\\" /></svg>\",\"<svg height=\\\"100\\\" width=\\\"100\\\"><circle cx=\\\"50\\\" cy=\\\"50\\\" r=\\\"30\\\" fill=\\\"gray\\\" stroke=\\\"black\\\" stroke-width=\\\"4\\\" /></svg>\",\"<svg height=\\\"100\\\" width=\\\"100\\\"><circle cx=\\\"50\\\" cy=\\\"50\\\" r=\\\"30\\\" fill=\\\"white\\\" stroke=\\\"black\\\" stroke-width=\\\"4\\\" /></svg>\"]",
		"key_press": "[74]",
		"period_ms": 1400,
		"first_flash_ms": 840,
		"flash_time_diff": 140,
		"trial_type": "multi-stim-multi-response",
		"trial_index": 45,
		"time_elapsed": 456416,
		"internal_node_id": "0.0-2.0-43.0",
		"respond_longer": true,
		"response_time": 3407
	},
	{
		"rt": "[3939]",
		"stimulus": "[\"<svg height=\\\"100\\\" width=\\\"100\\\"><circle cx=\\\"50\\\" cy=\\\"50\\\" r=\\\"30\\\" fill=\\\"gray\\\" stroke=\\\"black\\\" stroke-width=\\\"4\\\" /></svg>\",\"<svg height=\\\"100\\\" width=\\\"100\\\"><circle cx=\\\"50\\\" cy=\\\"50\\\" r=\\\"30\\\" fill=\\\"white\\\" stroke=\\\"black\\\" stroke-width=\\\"4\\\" /></svg>\",\"<svg height=\\\"100\\\" width=\\\"100\\\"><circle cx=\\\"50\\\" cy=\\\"50\\\" r=\\\"30\\\" fill=\\\"gray\\\" stroke=\\\"black\\\" stroke-width=\\\"4\\\" /></svg>\",\"<svg height=\\\"100\\\" width=\\\"100\\\"><circle cx=\\\"50\\\" cy=\\\"50\\\" r=\\\"30\\\" fill=\\\"white\\\" stroke=\\\"black\\\" stroke-width=\\\"4\\\" /></svg>\",\"<svg height=\\\"100\\\" width=\\\"100\\\"><circle cx=\\\"50\\\" cy=\\\"50\\\" r=\\\"30\\\" fill=\\\"gray\\\" stroke=\\\"black\\\" stroke-width=\\\"4\\\" /></svg>\",\"<svg height=\\\"100\\\" width=\\\"100\\\"><circle cx=\\\"50\\\" cy=\\\"50\\\" r=\\\"30\\\" fill=\\\"white\\\" stroke=\\\"black\\\" stroke-width=\\\"4\\\" /></svg>\",\"<svg height=\\\"100\\\" width=\\\"100\\\"><circle cx=\\\"50\\\" cy=\\\"50\\\" r=\\\"30\\\" fill=\\\"gray\\\" stroke=\\\"black\\\" stroke-width=\\\"4\\\" /></svg>\",\"<svg height=\\\"100\\\" width=\\\"100\\\"><circle cx=\\\"50\\\" cy=\\\"50\\\" r=\\\"30\\\" fill=\\\"white\\\" stroke=\\\"black\\\" stroke-width=\\\"4\\\" /></svg>\"]",
		"key_press": "[70]",
		"period_ms": 1800,
		"first_flash_ms": 600,
		"flash_time_diff": -300,
		"trial_type": "multi-stim-multi-response",
		"trial_index": 46,
		"time_elapsed": 461172,
		"internal_node_id": "0.0-2.0-44.0",
		"respond_longer": false,
		"response_time": 1539
	},
	{
		"rt": "[4097]",
		"stimulus": "[\"<svg height=\\\"100\\\" width=\\\"100\\\"><circle cx=\\\"50\\\" cy=\\\"50\\\" r=\\\"30\\\" fill=\\\"gray\\\" stroke=\\\"black\\\" stroke-width=\\\"4\\\" /></svg>\",\"<svg height=\\\"100\\\" width=\\\"100\\\"><circle cx=\\\"50\\\" cy=\\\"50\\\" r=\\\"30\\\" fill=\\\"white\\\" stroke=\\\"black\\\" stroke-width=\\\"4\\\" /></svg>\",\"<svg height=\\\"100\\\" width=\\\"100\\\"><circle cx=\\\"50\\\" cy=\\\"50\\\" r=\\\"30\\\" fill=\\\"gray\\\" stroke=\\\"black\\\" stroke-width=\\\"4\\\" /></svg>\",\"<svg height=\\\"100\\\" width=\\\"100\\\"><circle cx=\\\"50\\\" cy=\\\"50\\\" r=\\\"30\\\" fill=\\\"white\\\" stroke=\\\"black\\\" stroke-width=\\\"4\\\" /></svg>\",\"<svg height=\\\"100\\\" width=\\\"100\\\"><circle cx=\\\"50\\\" cy=\\\"50\\\" r=\\\"30\\\" fill=\\\"gray\\\" stroke=\\\"black\\\" stroke-width=\\\"4\\\" /></svg>\",\"<svg height=\\\"100\\\" width=\\\"100\\\"><circle cx=\\\"50\\\" cy=\\\"50\\\" r=\\\"30\\\" fill=\\\"white\\\" stroke=\\\"black\\\" stroke-width=\\\"4\\\" /></svg>\",\"<svg height=\\\"100\\\" width=\\\"100\\\"><circle cx=\\\"50\\\" cy=\\\"50\\\" r=\\\"30\\\" fill=\\\"gray\\\" stroke=\\\"black\\\" stroke-width=\\\"4\\\" /></svg>\",\"<svg height=\\\"100\\\" width=\\\"100\\\"><circle cx=\\\"50\\\" cy=\\\"50\\\" r=\\\"30\\\" fill=\\\"white\\\" stroke=\\\"black\\\" stroke-width=\\\"4\\\" /></svg>\"]",
		"key_press": "[74]",
		"period_ms": 1400,
		"first_flash_ms": 720,
		"flash_time_diff": 20,
		"trial_type": "multi-stim-multi-response",
		"trial_index": 47,
		"time_elapsed": 466208,
		"internal_node_id": "0.0-2.0-45.0",
		"respond_longer": true,
		"response_time": 1977
	},
	{
		"rt": "[7830]",
		"stimulus": "[\"<svg height=\\\"100\\\" width=\\\"100\\\"><circle cx=\\\"50\\\" cy=\\\"50\\\" r=\\\"30\\\" fill=\\\"gray\\\" stroke=\\\"black\\\" stroke-width=\\\"4\\\" /></svg>\",\"<svg height=\\\"100\\\" width=\\\"100\\\"><circle cx=\\\"50\\\" cy=\\\"50\\\" r=\\\"30\\\" fill=\\\"white\\\" stroke=\\\"black\\\" stroke-width=\\\"4\\\" /></svg>\",\"<svg height=\\\"100\\\" width=\\\"100\\\"><circle cx=\\\"50\\\" cy=\\\"50\\\" r=\\\"30\\\" fill=\\\"gray\\\" stroke=\\\"black\\\" stroke-width=\\\"4\\\" /></svg>\",\"<svg height=\\\"100\\\" width=\\\"100\\\"><circle cx=\\\"50\\\" cy=\\\"50\\\" r=\\\"30\\\" fill=\\\"white\\\" stroke=\\\"black\\\" stroke-width=\\\"4\\\" /></svg>\",\"<svg height=\\\"100\\\" width=\\\"100\\\"><circle cx=\\\"50\\\" cy=\\\"50\\\" r=\\\"30\\\" fill=\\\"gray\\\" stroke=\\\"black\\\" stroke-width=\\\"4\\\" /></svg>\",\"<svg height=\\\"100\\\" width=\\\"100\\\"><circle cx=\\\"50\\\" cy=\\\"50\\\" r=\\\"30\\\" fill=\\\"white\\\" stroke=\\\"black\\\" stroke-width=\\\"4\\\" /></svg>\",\"<svg height=\\\"100\\\" width=\\\"100\\\"><circle cx=\\\"50\\\" cy=\\\"50\\\" r=\\\"30\\\" fill=\\\"gray\\\" stroke=\\\"black\\\" stroke-width=\\\"4\\\" /></svg>\",\"<svg height=\\\"100\\\" width=\\\"100\\\"><circle cx=\\\"50\\\" cy=\\\"50\\\" r=\\\"30\\\" fill=\\\"white\\\" stroke=\\\"black\\\" stroke-width=\\\"4\\\" /></svg>\"]",
		"key_press": "[74]",
		"period_ms": 1600,
		"first_flash_ms": 980,
		"flash_time_diff": 180,
		"trial_type": "multi-stim-multi-response",
		"trial_index": 48,
		"time_elapsed": 476208,
		"internal_node_id": "0.0-2.0-46.0",
		"respond_longer": true,
		"response_time": 5250
	},
	{
		"rt": "[3095]",
		"stimulus": "[\"<svg height=\\\"100\\\" width=\\\"100\\\"><circle cx=\\\"50\\\" cy=\\\"50\\\" r=\\\"30\\\" fill=\\\"gray\\\" stroke=\\\"black\\\" stroke-width=\\\"4\\\" /></svg>\",\"<svg height=\\\"100\\\" width=\\\"100\\\"><circle cx=\\\"50\\\" cy=\\\"50\\\" r=\\\"30\\\" fill=\\\"white\\\" stroke=\\\"black\\\" stroke-width=\\\"4\\\" /></svg>\",\"<svg height=\\\"100\\\" width=\\\"100\\\"><circle cx=\\\"50\\\" cy=\\\"50\\\" r=\\\"30\\\" fill=\\\"gray\\\" stroke=\\\"black\\\" stroke-width=\\\"4\\\" /></svg>\",\"<svg height=\\\"100\\\" width=\\\"100\\\"><circle cx=\\\"50\\\" cy=\\\"50\\\" r=\\\"30\\\" fill=\\\"white\\\" stroke=\\\"black\\\" stroke-width=\\\"4\\\" /></svg>\",\"<svg height=\\\"100\\\" width=\\\"100\\\"><circle cx=\\\"50\\\" cy=\\\"50\\\" r=\\\"30\\\" fill=\\\"gray\\\" stroke=\\\"black\\\" stroke-width=\\\"4\\\" /></svg>\",\"<svg height=\\\"100\\\" width=\\\"100\\\"><circle cx=\\\"50\\\" cy=\\\"50\\\" r=\\\"30\\\" fill=\\\"white\\\" stroke=\\\"black\\\" stroke-width=\\\"4\\\" /></svg>\",\"<svg height=\\\"100\\\" width=\\\"100\\\"><circle cx=\\\"50\\\" cy=\\\"50\\\" r=\\\"30\\\" fill=\\\"gray\\\" stroke=\\\"black\\\" stroke-width=\\\"4\\\" /></svg>\",\"<svg height=\\\"100\\\" width=\\\"100\\\"><circle cx=\\\"50\\\" cy=\\\"50\\\" r=\\\"30\\\" fill=\\\"white\\\" stroke=\\\"black\\\" stroke-width=\\\"4\\\" /></svg>\"]",
		"key_press": "[70]",
		"period_ms": 1400,
		"first_flash_ms": 480,
		"flash_time_diff": -220,
		"trial_type": "multi-stim-multi-response",
		"trial_index": 49,
		"time_elapsed": 481534,
		"internal_node_id": "0.0-2.0-47.0",
		"respond_longer": false,
		"response_time": 1215
	},
	{
		"rt": 648124,
		"key_press": 32,
		"trial_type": "text",
		"trial_index": 50,
		"time_elapsed": 1131156,
		"internal_node_id": "0.0-3.0"
	},
	{
		"rt": "[4210]",
		"stimulus": "[\"<svg height=\\\"100\\\" width=\\\"100\\\"><circle cx=\\\"50\\\" cy=\\\"50\\\" r=\\\"30\\\" fill=\\\"gray\\\" stroke=\\\"black\\\" stroke-width=\\\"4\\\" /></svg>\",\"<svg height=\\\"100\\\" width=\\\"100\\\"><circle cx=\\\"50\\\" cy=\\\"50\\\" r=\\\"30\\\" fill=\\\"white\\\" stroke=\\\"black\\\" stroke-width=\\\"4\\\" /></svg>\",\"<svg height=\\\"100\\\" width=\\\"100\\\"><circle cx=\\\"50\\\" cy=\\\"50\\\" r=\\\"30\\\" fill=\\\"gray\\\" stroke=\\\"black\\\" stroke-width=\\\"4\\\" /></svg>\",\"<svg height=\\\"100\\\" width=\\\"100\\\"><circle cx=\\\"50\\\" cy=\\\"50\\\" r=\\\"30\\\" fill=\\\"white\\\" stroke=\\\"black\\\" stroke-width=\\\"4\\\" /></svg>\",\"<svg height=\\\"100\\\" width=\\\"100\\\"><circle cx=\\\"50\\\" cy=\\\"50\\\" r=\\\"30\\\" fill=\\\"gray\\\" stroke=\\\"black\\\" stroke-width=\\\"4\\\" /></svg>\",\"<svg height=\\\"100\\\" width=\\\"100\\\"><circle cx=\\\"50\\\" cy=\\\"50\\\" r=\\\"30\\\" fill=\\\"white\\\" stroke=\\\"black\\\" stroke-width=\\\"4\\\" /></svg>\",\"<svg height=\\\"100\\\" width=\\\"100\\\"><circle cx=\\\"50\\\" cy=\\\"50\\\" r=\\\"30\\\" fill=\\\"gray\\\" stroke=\\\"black\\\" stroke-width=\\\"4\\\" /></svg>\",\"<svg height=\\\"100\\\" width=\\\"100\\\"><circle cx=\\\"50\\\" cy=\\\"50\\\" r=\\\"30\\\" fill=\\\"white\\\" stroke=\\\"black\\\" stroke-width=\\\"4\\\" /></svg>\"]",
		"key_press": "[74]",
		"period_ms": 1800,
		"first_flash_ms": 1160,
		"flash_time_diff": 260,
		"trial_type": "multi-stim-multi-response",
		"trial_index": 51,
		"time_elapsed": 1136689,
		"internal_node_id": "0.0-4.0-0.0",
		"respond_longer": true,
		"response_time": 1250
	},
	{
		"rt": "[4443]",
		"stimulus": "[\"<svg height=\\\"100\\\" width=\\\"100\\\"><circle cx=\\\"50\\\" cy=\\\"50\\\" r=\\\"30\\\" fill=\\\"gray\\\" stroke=\\\"black\\\" stroke-width=\\\"4\\\" /></svg>\",\"<svg height=\\\"100\\\" width=\\\"100\\\"><circle cx=\\\"50\\\" cy=\\\"50\\\" r=\\\"30\\\" fill=\\\"white\\\" stroke=\\\"black\\\" stroke-width=\\\"4\\\" /></svg>\",\"<svg height=\\\"100\\\" width=\\\"100\\\"><circle cx=\\\"50\\\" cy=\\\"50\\\" r=\\\"30\\\" fill=\\\"gray\\\" stroke=\\\"black\\\" stroke-width=\\\"4\\\" /></svg>\",\"<svg height=\\\"100\\\" width=\\\"100\\\"><circle cx=\\\"50\\\" cy=\\\"50\\\" r=\\\"30\\\" fill=\\\"white\\\" stroke=\\\"black\\\" stroke-width=\\\"4\\\" /></svg>\",\"<svg height=\\\"100\\\" width=\\\"100\\\"><circle cx=\\\"50\\\" cy=\\\"50\\\" r=\\\"30\\\" fill=\\\"gray\\\" stroke=\\\"black\\\" stroke-width=\\\"4\\\" /></svg>\",\"<svg height=\\\"100\\\" width=\\\"100\\\"><circle cx=\\\"50\\\" cy=\\\"50\\\" r=\\\"30\\\" fill=\\\"white\\\" stroke=\\\"black\\\" stroke-width=\\\"4\\\" /></svg>\",\"<svg height=\\\"100\\\" width=\\\"100\\\"><circle cx=\\\"50\\\" cy=\\\"50\\\" r=\\\"30\\\" fill=\\\"gray\\\" stroke=\\\"black\\\" stroke-width=\\\"4\\\" /></svg>\",\"<svg height=\\\"100\\\" width=\\\"100\\\"><circle cx=\\\"50\\\" cy=\\\"50\\\" r=\\\"30\\\" fill=\\\"white\\\" stroke=\\\"black\\\" stroke-width=\\\"4\\\" /></svg>\"]",
		"key_press": "[70]",
		"period_ms": 1600,
		"first_flash_ms": 660,
		"flash_time_diff": -140,
		"trial_type": "multi-stim-multi-response",
		"trial_index": 52,
		"time_elapsed": 1142446,
		"internal_node_id": "0.0-4.0-1.0",
		"respond_longer": false,
		"response_time": 2183
	},
	{
		"rt": "[4519]",
		"stimulus": "[\"<svg height=\\\"100\\\" width=\\\"100\\\"><circle cx=\\\"50\\\" cy=\\\"50\\\" r=\\\"30\\\" fill=\\\"gray\\\" stroke=\\\"black\\\" stroke-width=\\\"4\\\" /></svg>\",\"<svg height=\\\"100\\\" width=\\\"100\\\"><circle cx=\\\"50\\\" cy=\\\"50\\\" r=\\\"30\\\" fill=\\\"white\\\" stroke=\\\"black\\\" stroke-width=\\\"4\\\" /></svg>\",\"<svg height=\\\"100\\\" width=\\\"100\\\"><circle cx=\\\"50\\\" cy=\\\"50\\\" r=\\\"30\\\" fill=\\\"gray\\\" stroke=\\\"black\\\" stroke-width=\\\"4\\\" /></svg>\",\"<svg height=\\\"100\\\" width=\\\"100\\\"><circle cx=\\\"50\\\" cy=\\\"50\\\" r=\\\"30\\\" fill=\\\"white\\\" stroke=\\\"black\\\" stroke-width=\\\"4\\\" /></svg>\",\"<svg height=\\\"100\\\" width=\\\"100\\\"><circle cx=\\\"50\\\" cy=\\\"50\\\" r=\\\"30\\\" fill=\\\"gray\\\" stroke=\\\"black\\\" stroke-width=\\\"4\\\" /></svg>\",\"<svg height=\\\"100\\\" width=\\\"100\\\"><circle cx=\\\"50\\\" cy=\\\"50\\\" r=\\\"30\\\" fill=\\\"white\\\" stroke=\\\"black\\\" stroke-width=\\\"4\\\" /></svg>\",\"<svg height=\\\"100\\\" width=\\\"100\\\"><circle cx=\\\"50\\\" cy=\\\"50\\\" r=\\\"30\\\" fill=\\\"gray\\\" stroke=\\\"black\\\" stroke-width=\\\"4\\\" /></svg>\",\"<svg height=\\\"100\\\" width=\\\"100\\\"><circle cx=\\\"50\\\" cy=\\\"50\\\" r=\\\"30\\\" fill=\\\"white\\\" stroke=\\\"black\\\" stroke-width=\\\"4\\\" /></svg>\"]",
		"key_press": "[70]",
		"period_ms": 1600,
		"first_flash_ms": 700,
		"flash_time_diff": -100,
		"trial_type": "multi-stim-multi-response",
		"trial_index": 53,
		"time_elapsed": 1148648,
		"internal_node_id": "0.0-4.0-2.0",
		"respond_longer": false,
		"response_time": 2219
	},
	{
		"rt": "[4727]",
		"stimulus": "[\"<svg height=\\\"100\\\" width=\\\"100\\\"><circle cx=\\\"50\\\" cy=\\\"50\\\" r=\\\"30\\\" fill=\\\"gray\\\" stroke=\\\"black\\\" stroke-width=\\\"4\\\" /></svg>\",\"<svg height=\\\"100\\\" width=\\\"100\\\"><circle cx=\\\"50\\\" cy=\\\"50\\\" r=\\\"30\\\" fill=\\\"white\\\" stroke=\\\"black\\\" stroke-width=\\\"4\\\" /></svg>\",\"<svg height=\\\"100\\\" width=\\\"100\\\"><circle cx=\\\"50\\\" cy=\\\"50\\\" r=\\\"30\\\" fill=\\\"gray\\\" stroke=\\\"black\\\" stroke-width=\\\"4\\\" /></svg>\",\"<svg height=\\\"100\\\" width=\\\"100\\\"><circle cx=\\\"50\\\" cy=\\\"50\\\" r=\\\"30\\\" fill=\\\"white\\\" stroke=\\\"black\\\" stroke-width=\\\"4\\\" /></svg>\",\"<svg height=\\\"100\\\" width=\\\"100\\\"><circle cx=\\\"50\\\" cy=\\\"50\\\" r=\\\"30\\\" fill=\\\"gray\\\" stroke=\\\"black\\\" stroke-width=\\\"4\\\" /></svg>\",\"<svg height=\\\"100\\\" width=\\\"100\\\"><circle cx=\\\"50\\\" cy=\\\"50\\\" r=\\\"30\\\" fill=\\\"white\\\" stroke=\\\"black\\\" stroke-width=\\\"4\\\" /></svg>\",\"<svg height=\\\"100\\\" width=\\\"100\\\"><circle cx=\\\"50\\\" cy=\\\"50\\\" r=\\\"30\\\" fill=\\\"gray\\\" stroke=\\\"black\\\" stroke-width=\\\"4\\\" /></svg>\",\"<svg height=\\\"100\\\" width=\\\"100\\\"><circle cx=\\\"50\\\" cy=\\\"50\\\" r=\\\"30\\\" fill=\\\"white\\\" stroke=\\\"black\\\" stroke-width=\\\"4\\\" /></svg>\"]",
		"key_press": "[74]",
		"period_ms": 1600,
		"first_flash_ms": 1100,
		"flash_time_diff": 300,
		"trial_type": "multi-stim-multi-response",
		"trial_index": 54,
		"time_elapsed": 1155585,
		"internal_node_id": "0.0-4.0-3.0",
		"respond_longer": true,
		"response_time": 2027
	},
	{
		"rt": "[4674]",
		"stimulus": "[\"<svg height=\\\"100\\\" width=\\\"100\\\"><circle cx=\\\"50\\\" cy=\\\"50\\\" r=\\\"30\\\" fill=\\\"gray\\\" stroke=\\\"black\\\" stroke-width=\\\"4\\\" /></svg>\",\"<svg height=\\\"100\\\" width=\\\"100\\\"><circle cx=\\\"50\\\" cy=\\\"50\\\" r=\\\"30\\\" fill=\\\"white\\\" stroke=\\\"black\\\" stroke-width=\\\"4\\\" /></svg>\",\"<svg height=\\\"100\\\" width=\\\"100\\\"><circle cx=\\\"50\\\" cy=\\\"50\\\" r=\\\"30\\\" fill=\\\"gray\\\" stroke=\\\"black\\\" stroke-width=\\\"4\\\" /></svg>\",\"<svg height=\\\"100\\\" width=\\\"100\\\"><circle cx=\\\"50\\\" cy=\\\"50\\\" r=\\\"30\\\" fill=\\\"white\\\" stroke=\\\"black\\\" stroke-width=\\\"4\\\" /></svg>\",\"<svg height=\\\"100\\\" width=\\\"100\\\"><circle cx=\\\"50\\\" cy=\\\"50\\\" r=\\\"30\\\" fill=\\\"gray\\\" stroke=\\\"black\\\" stroke-width=\\\"4\\\" /></svg>\",\"<svg height=\\\"100\\\" width=\\\"100\\\"><circle cx=\\\"50\\\" cy=\\\"50\\\" r=\\\"30\\\" fill=\\\"white\\\" stroke=\\\"black\\\" stroke-width=\\\"4\\\" /></svg>\",\"<svg height=\\\"100\\\" width=\\\"100\\\"><circle cx=\\\"50\\\" cy=\\\"50\\\" r=\\\"30\\\" fill=\\\"gray\\\" stroke=\\\"black\\\" stroke-width=\\\"4\\\" /></svg>\",\"<svg height=\\\"100\\\" width=\\\"100\\\"><circle cx=\\\"50\\\" cy=\\\"50\\\" r=\\\"30\\\" fill=\\\"white\\\" stroke=\\\"black\\\" stroke-width=\\\"4\\\" /></svg>\"]",
		"key_press": "[74]",
		"period_ms": 1600,
		"first_flash_ms": 1100,
		"flash_time_diff": 300,
		"trial_type": "multi-stim-multi-response",
		"trial_index": 55,
		"time_elapsed": 1161249,
		"internal_node_id": "0.0-4.0-4.0",
		"respond_longer": true,
		"response_time": 1974
	},
	{
		"rt": "[5395]",
		"stimulus": "[\"<svg height=\\\"100\\\" width=\\\"100\\\"><circle cx=\\\"50\\\" cy=\\\"50\\\" r=\\\"30\\\" fill=\\\"gray\\\" stroke=\\\"black\\\" stroke-width=\\\"4\\\" /></svg>\",\"<svg height=\\\"100\\\" width=\\\"100\\\"><circle cx=\\\"50\\\" cy=\\\"50\\\" r=\\\"30\\\" fill=\\\"white\\\" stroke=\\\"black\\\" stroke-width=\\\"4\\\" /></svg>\",\"<svg height=\\\"100\\\" width=\\\"100\\\"><circle cx=\\\"50\\\" cy=\\\"50\\\" r=\\\"30\\\" fill=\\\"gray\\\" stroke=\\\"black\\\" stroke-width=\\\"4\\\" /></svg>\",\"<svg height=\\\"100\\\" width=\\\"100\\\"><circle cx=\\\"50\\\" cy=\\\"50\\\" r=\\\"30\\\" fill=\\\"white\\\" stroke=\\\"black\\\" stroke-width=\\\"4\\\" /></svg>\",\"<svg height=\\\"100\\\" width=\\\"100\\\"><circle cx=\\\"50\\\" cy=\\\"50\\\" r=\\\"30\\\" fill=\\\"gray\\\" stroke=\\\"black\\\" stroke-width=\\\"4\\\" /></svg>\",\"<svg height=\\\"100\\\" width=\\\"100\\\"><circle cx=\\\"50\\\" cy=\\\"50\\\" r=\\\"30\\\" fill=\\\"white\\\" stroke=\\\"black\\\" stroke-width=\\\"4\\\" /></svg>\",\"<svg height=\\\"100\\\" width=\\\"100\\\"><circle cx=\\\"50\\\" cy=\\\"50\\\" r=\\\"30\\\" fill=\\\"gray\\\" stroke=\\\"black\\\" stroke-width=\\\"4\\\" /></svg>\",\"<svg height=\\\"100\\\" width=\\\"100\\\"><circle cx=\\\"50\\\" cy=\\\"50\\\" r=\\\"30\\\" fill=\\\"white\\\" stroke=\\\"black\\\" stroke-width=\\\"4\\\" /></svg>\"]",
		"key_press": "[74]",
		"period_ms": 1400,
		"first_flash_ms": 880,
		"flash_time_diff": 180,
		"trial_type": "multi-stim-multi-response",
		"trial_index": 56,
		"time_elapsed": 1167743,
		"internal_node_id": "0.0-4.0-5.0",
		"respond_longer": true,
		"response_time": 3115
	},
	{
		"rt": "[4436]",
		"stimulus": "[\"<svg height=\\\"100\\\" width=\\\"100\\\"><circle cx=\\\"50\\\" cy=\\\"50\\\" r=\\\"30\\\" fill=\\\"gray\\\" stroke=\\\"black\\\" stroke-width=\\\"4\\\" /></svg>\",\"<svg height=\\\"100\\\" width=\\\"100\\\"><circle cx=\\\"50\\\" cy=\\\"50\\\" r=\\\"30\\\" fill=\\\"white\\\" stroke=\\\"black\\\" stroke-width=\\\"4\\\" /></svg>\",\"<svg height=\\\"100\\\" width=\\\"100\\\"><circle cx=\\\"50\\\" cy=\\\"50\\\" r=\\\"30\\\" fill=\\\"gray\\\" stroke=\\\"black\\\" stroke-width=\\\"4\\\" /></svg>\",\"<svg height=\\\"100\\\" width=\\\"100\\\"><circle cx=\\\"50\\\" cy=\\\"50\\\" r=\\\"30\\\" fill=\\\"white\\\" stroke=\\\"black\\\" stroke-width=\\\"4\\\" /></svg>\",\"<svg height=\\\"100\\\" width=\\\"100\\\"><circle cx=\\\"50\\\" cy=\\\"50\\\" r=\\\"30\\\" fill=\\\"gray\\\" stroke=\\\"black\\\" stroke-width=\\\"4\\\" /></svg>\",\"<svg height=\\\"100\\\" width=\\\"100\\\"><circle cx=\\\"50\\\" cy=\\\"50\\\" r=\\\"30\\\" fill=\\\"white\\\" stroke=\\\"black\\\" stroke-width=\\\"4\\\" /></svg>\",\"<svg height=\\\"100\\\" width=\\\"100\\\"><circle cx=\\\"50\\\" cy=\\\"50\\\" r=\\\"30\\\" fill=\\\"gray\\\" stroke=\\\"black\\\" stroke-width=\\\"4\\\" /></svg>\",\"<svg height=\\\"100\\\" width=\\\"100\\\"><circle cx=\\\"50\\\" cy=\\\"50\\\" r=\\\"30\\\" fill=\\\"white\\\" stroke=\\\"black\\\" stroke-width=\\\"4\\\" /></svg>\"]",
		"key_press": "[70]",
		"period_ms": 1600,
		"first_flash_ms": 900,
		"flash_time_diff": 100,
		"trial_type": "multi-stim-multi-response",
		"trial_index": 57,
		"time_elapsed": 1174033,
		"internal_node_id": "0.0-4.0-6.0",
		"respond_longer": false,
		"response_time": 1936
	},
	{
		"rt": "[5680]",
		"stimulus": "[\"<svg height=\\\"100\\\" width=\\\"100\\\"><circle cx=\\\"50\\\" cy=\\\"50\\\" r=\\\"30\\\" fill=\\\"gray\\\" stroke=\\\"black\\\" stroke-width=\\\"4\\\" /></svg>\",\"<svg height=\\\"100\\\" width=\\\"100\\\"><circle cx=\\\"50\\\" cy=\\\"50\\\" r=\\\"30\\\" fill=\\\"white\\\" stroke=\\\"black\\\" stroke-width=\\\"4\\\" /></svg>\",\"<svg height=\\\"100\\\" width=\\\"100\\\"><circle cx=\\\"50\\\" cy=\\\"50\\\" r=\\\"30\\\" fill=\\\"gray\\\" stroke=\\\"black\\\" stroke-width=\\\"4\\\" /></svg>\",\"<svg height=\\\"100\\\" width=\\\"100\\\"><circle cx=\\\"50\\\" cy=\\\"50\\\" r=\\\"30\\\" fill=\\\"white\\\" stroke=\\\"black\\\" stroke-width=\\\"4\\\" /></svg>\",\"<svg height=\\\"100\\\" width=\\\"100\\\"><circle cx=\\\"50\\\" cy=\\\"50\\\" r=\\\"30\\\" fill=\\\"gray\\\" stroke=\\\"black\\\" stroke-width=\\\"4\\\" /></svg>\",\"<svg height=\\\"100\\\" width=\\\"100\\\"><circle cx=\\\"50\\\" cy=\\\"50\\\" r=\\\"30\\\" fill=\\\"white\\\" stroke=\\\"black\\\" stroke-width=\\\"4\\\" /></svg>\",\"<svg height=\\\"100\\\" width=\\\"100\\\"><circle cx=\\\"50\\\" cy=\\\"50\\\" r=\\\"30\\\" fill=\\\"gray\\\" stroke=\\\"black\\\" stroke-width=\\\"4\\\" /></svg>\",\"<svg height=\\\"100\\\" width=\\\"100\\\"><circle cx=\\\"50\\\" cy=\\\"50\\\" r=\\\"30\\\" fill=\\\"white\\\" stroke=\\\"black\\\" stroke-width=\\\"4\\\" /></svg>\"]",
		"key_press": "[70]",
		"period_ms": 1800,
		"first_flash_ms": 920,
		"flash_time_diff": 20,
		"trial_type": "multi-stim-multi-response",
		"trial_index": 58,
		"time_elapsed": 1180482,
		"internal_node_id": "0.0-4.0-7.0",
		"respond_longer": false,
		"response_time": 2960
	},
	{
		"rt": "[9287]",
		"stimulus": "[\"<svg height=\\\"100\\\" width=\\\"100\\\"><circle cx=\\\"50\\\" cy=\\\"50\\\" r=\\\"30\\\" fill=\\\"gray\\\" stroke=\\\"black\\\" stroke-width=\\\"4\\\" /></svg>\",\"<svg height=\\\"100\\\" width=\\\"100\\\"><circle cx=\\\"50\\\" cy=\\\"50\\\" r=\\\"30\\\" fill=\\\"white\\\" stroke=\\\"black\\\" stroke-width=\\\"4\\\" /></svg>\",\"<svg height=\\\"100\\\" width=\\\"100\\\"><circle cx=\\\"50\\\" cy=\\\"50\\\" r=\\\"30\\\" fill=\\\"gray\\\" stroke=\\\"black\\\" stroke-width=\\\"4\\\" /></svg>\",\"<svg height=\\\"100\\\" width=\\\"100\\\"><circle cx=\\\"50\\\" cy=\\\"50\\\" r=\\\"30\\\" fill=\\\"white\\\" stroke=\\\"black\\\" stroke-width=\\\"4\\\" /></svg>\",\"<svg height=\\\"100\\\" width=\\\"100\\\"><circle cx=\\\"50\\\" cy=\\\"50\\\" r=\\\"30\\\" fill=\\\"gray\\\" stroke=\\\"black\\\" stroke-width=\\\"4\\\" /></svg>\",\"<svg height=\\\"100\\\" width=\\\"100\\\"><circle cx=\\\"50\\\" cy=\\\"50\\\" r=\\\"30\\\" fill=\\\"white\\\" stroke=\\\"black\\\" stroke-width=\\\"4\\\" /></svg>\",\"<svg height=\\\"100\\\" width=\\\"100\\\"><circle cx=\\\"50\\\" cy=\\\"50\\\" r=\\\"30\\\" fill=\\\"gray\\\" stroke=\\\"black\\\" stroke-width=\\\"4\\\" /></svg>\",\"<svg height=\\\"100\\\" width=\\\"100\\\"><circle cx=\\\"50\\\" cy=\\\"50\\\" r=\\\"30\\\" fill=\\\"white\\\" stroke=\\\"black\\\" stroke-width=\\\"4\\\" /></svg>\"]",
		"key_press": "[74]",
		"period_ms": 1800,
		"first_flash_ms": 1200,
		"flash_time_diff": 300,
		"trial_type": "multi-stim-multi-response",
		"trial_index": 59,
		"time_elapsed": 1191283,
		"internal_node_id": "0.0-4.0-8.0",
		"respond_longer": true,
		"response_time": 6287
	},
	{
		"rt": "[5224]",
		"stimulus": "[\"<svg height=\\\"100\\\" width=\\\"100\\\"><circle cx=\\\"50\\\" cy=\\\"50\\\" r=\\\"30\\\" fill=\\\"gray\\\" stroke=\\\"black\\\" stroke-width=\\\"4\\\" /></svg>\",\"<svg height=\\\"100\\\" width=\\\"100\\\"><circle cx=\\\"50\\\" cy=\\\"50\\\" r=\\\"30\\\" fill=\\\"white\\\" stroke=\\\"black\\\" stroke-width=\\\"4\\\" /></svg>\",\"<svg height=\\\"100\\\" width=\\\"100\\\"><circle cx=\\\"50\\\" cy=\\\"50\\\" r=\\\"30\\\" fill=\\\"gray\\\" stroke=\\\"black\\\" stroke-width=\\\"4\\\" /></svg>\",\"<svg height=\\\"100\\\" width=\\\"100\\\"><circle cx=\\\"50\\\" cy=\\\"50\\\" r=\\\"30\\\" fill=\\\"white\\\" stroke=\\\"black\\\" stroke-width=\\\"4\\\" /></svg>\",\"<svg height=\\\"100\\\" width=\\\"100\\\"><circle cx=\\\"50\\\" cy=\\\"50\\\" r=\\\"30\\\" fill=\\\"gray\\\" stroke=\\\"black\\\" stroke-width=\\\"4\\\" /></svg>\",\"<svg height=\\\"100\\\" width=\\\"100\\\"><circle cx=\\\"50\\\" cy=\\\"50\\\" r=\\\"30\\\" fill=\\\"white\\\" stroke=\\\"black\\\" stroke-width=\\\"4\\\" /></svg>\",\"<svg height=\\\"100\\\" width=\\\"100\\\"><circle cx=\\\"50\\\" cy=\\\"50\\\" r=\\\"30\\\" fill=\\\"gray\\\" stroke=\\\"black\\\" stroke-width=\\\"4\\\" /></svg>\",\"<svg height=\\\"100\\\" width=\\\"100\\\"><circle cx=\\\"50\\\" cy=\\\"50\\\" r=\\\"30\\\" fill=\\\"white\\\" stroke=\\\"black\\\" stroke-width=\\\"4\\\" /></svg>\"]",
		"key_press": "[74]",
		"period_ms": 1400,
		"first_flash_ms": 680,
		"flash_time_diff": -20,
		"trial_type": "multi-stim-multi-response",
		"trial_index": 60,
		"time_elapsed": 1197264,
		"internal_node_id": "0.0-4.0-9.0",
		"respond_longer": true,
		"response_time": 3144
	},
	{
		"rt": "[5524]",
		"stimulus": "[\"<svg height=\\\"100\\\" width=\\\"100\\\"><circle cx=\\\"50\\\" cy=\\\"50\\\" r=\\\"30\\\" fill=\\\"gray\\\" stroke=\\\"black\\\" stroke-width=\\\"4\\\" /></svg>\",\"<svg height=\\\"100\\\" width=\\\"100\\\"><circle cx=\\\"50\\\" cy=\\\"50\\\" r=\\\"30\\\" fill=\\\"white\\\" stroke=\\\"black\\\" stroke-width=\\\"4\\\" /></svg>\",\"<svg height=\\\"100\\\" width=\\\"100\\\"><circle cx=\\\"50\\\" cy=\\\"50\\\" r=\\\"30\\\" fill=\\\"gray\\\" stroke=\\\"black\\\" stroke-width=\\\"4\\\" /></svg>\",\"<svg height=\\\"100\\\" width=\\\"100\\\"><circle cx=\\\"50\\\" cy=\\\"50\\\" r=\\\"30\\\" fill=\\\"white\\\" stroke=\\\"black\\\" stroke-width=\\\"4\\\" /></svg>\",\"<svg height=\\\"100\\\" width=\\\"100\\\"><circle cx=\\\"50\\\" cy=\\\"50\\\" r=\\\"30\\\" fill=\\\"gray\\\" stroke=\\\"black\\\" stroke-width=\\\"4\\\" /></svg>\",\"<svg height=\\\"100\\\" width=\\\"100\\\"><circle cx=\\\"50\\\" cy=\\\"50\\\" r=\\\"30\\\" fill=\\\"white\\\" stroke=\\\"black\\\" stroke-width=\\\"4\\\" /></svg>\",\"<svg height=\\\"100\\\" width=\\\"100\\\"><circle cx=\\\"50\\\" cy=\\\"50\\\" r=\\\"30\\\" fill=\\\"gray\\\" stroke=\\\"black\\\" stroke-width=\\\"4\\\" /></svg>\",\"<svg height=\\\"100\\\" width=\\\"100\\\"><circle cx=\\\"50\\\" cy=\\\"50\\\" r=\\\"30\\\" fill=\\\"white\\\" stroke=\\\"black\\\" stroke-width=\\\"4\\\" /></svg>\"]",
		"key_press": "[74]",
		"period_ms": 1600,
		"first_flash_ms": 940,
		"flash_time_diff": 140,
		"trial_type": "multi-stim-multi-response",
		"trial_index": 61,
		"time_elapsed": 1204795,
		"internal_node_id": "0.0-4.0-10.0",
		"respond_longer": true,
		"response_time": 2984
	},
	{
		"rt": "[6825]",
		"stimulus": "[\"<svg height=\\\"100\\\" width=\\\"100\\\"><circle cx=\\\"50\\\" cy=\\\"50\\\" r=\\\"30\\\" fill=\\\"gray\\\" stroke=\\\"black\\\" stroke-width=\\\"4\\\" /></svg>\",\"<svg height=\\\"100\\\" width=\\\"100\\\"><circle cx=\\\"50\\\" cy=\\\"50\\\" r=\\\"30\\\" fill=\\\"white\\\" stroke=\\\"black\\\" stroke-width=\\\"4\\\" /></svg>\",\"<svg height=\\\"100\\\" width=\\\"100\\\"><circle cx=\\\"50\\\" cy=\\\"50\\\" r=\\\"30\\\" fill=\\\"gray\\\" stroke=\\\"black\\\" stroke-width=\\\"4\\\" /></svg>\",\"<svg height=\\\"100\\\" width=\\\"100\\\"><circle cx=\\\"50\\\" cy=\\\"50\\\" r=\\\"30\\\" fill=\\\"white\\\" stroke=\\\"black\\\" stroke-width=\\\"4\\\" /></svg>\",\"<svg height=\\\"100\\\" width=\\\"100\\\"><circle cx=\\\"50\\\" cy=\\\"50\\\" r=\\\"30\\\" fill=\\\"gray\\\" stroke=\\\"black\\\" stroke-width=\\\"4\\\" /></svg>\",\"<svg height=\\\"100\\\" width=\\\"100\\\"><circle cx=\\\"50\\\" cy=\\\"50\\\" r=\\\"30\\\" fill=\\\"white\\\" stroke=\\\"black\\\" stroke-width=\\\"4\\\" /></svg>\",\"<svg height=\\\"100\\\" width=\\\"100\\\"><circle cx=\\\"50\\\" cy=\\\"50\\\" r=\\\"30\\\" fill=\\\"gray\\\" stroke=\\\"black\\\" stroke-width=\\\"4\\\" /></svg>\",\"<svg height=\\\"100\\\" width=\\\"100\\\"><circle cx=\\\"50\\\" cy=\\\"50\\\" r=\\\"30\\\" fill=\\\"white\\\" stroke=\\\"black\\\" stroke-width=\\\"4\\\" /></svg>\"]",
		"key_press": "[74]",
		"period_ms": 1800,
		"first_flash_ms": 1040,
		"flash_time_diff": 140,
		"trial_type": "multi-stim-multi-response",
		"trial_index": 62,
		"time_elapsed": 1213732,
		"internal_node_id": "0.0-4.0-11.0",
		"respond_longer": true,
		"response_time": 3985
	},
	{
		"rt": "[5970]",
