[
	{
		"success": true,
		"trial_type": "fullscreen",
		"trial_index": 0,
		"time_elapsed": 7802,
		"internal_node_id": "0.0-0.0"
	},
	{
		"rt": 1681,
		"key_press": 32,
		"trial_type": "text",
		"trial_index": 1,
		"time_elapsed": 9486,
		"internal_node_id": "0.0-1.0"
	},
	{
		"rt": "[5246]",
		"stimulus": "[\"<svg height=\\\"100\\\" width=\\\"100\\\"><circle cx=\\\"50\\\" cy=\\\"50\\\" r=\\\"30\\\" fill=\\\"gray\\\" stroke=\\\"black\\\" stroke-width=\\\"4\\\" /></svg>\",\"<svg height=\\\"100\\\" width=\\\"100\\\"><circle cx=\\\"50\\\" cy=\\\"50\\\" r=\\\"30\\\" fill=\\\"white\\\" stroke=\\\"black\\\" stroke-width=\\\"4\\\" /></svg>\",\"<svg height=\\\"100\\\" width=\\\"100\\\"><circle cx=\\\"50\\\" cy=\\\"50\\\" r=\\\"30\\\" fill=\\\"gray\\\" stroke=\\\"black\\\" stroke-width=\\\"4\\\" /></svg>\",\"<svg height=\\\"100\\\" width=\\\"100\\\"><circle cx=\\\"50\\\" cy=\\\"50\\\" r=\\\"30\\\" fill=\\\"white\\\" stroke=\\\"black\\\" stroke-width=\\\"4\\\" /></svg>\",\"<svg height=\\\"100\\\" width=\\\"100\\\"><circle cx=\\\"50\\\" cy=\\\"50\\\" r=\\\"30\\\" fill=\\\"gray\\\" stroke=\\\"black\\\" stroke-width=\\\"4\\\" /></svg>\",\"<svg height=\\\"100\\\" width=\\\"100\\\"><circle cx=\\\"50\\\" cy=\\\"50\\\" r=\\\"30\\\" fill=\\\"white\\\" stroke=\\\"black\\\" stroke-width=\\\"4\\\" /></svg>\",\"<svg height=\\\"100\\\" width=\\\"100\\\"><circle cx=\\\"50\\\" cy=\\\"50\\\" r=\\\"30\\\" fill=\\\"gray\\\" stroke=\\\"black\\\" stroke-width=\\\"4\\\" /></svg>\",\"<svg height=\\\"100\\\" width=\\\"100\\\"><circle cx=\\\"50\\\" cy=\\\"50\\\" r=\\\"30\\\" fill=\\\"white\\\" stroke=\\\"black\\\" stroke-width=\\\"4\\\" /></svg>\"]",
		"key_press": "[74]",
		"period_ms": 1600,
		"first_flash_ms": 770,
		"flash_time_diff": -30,
		"trial_type": "multi-stim-multi-response",
		"trial_index": 2,
		"time_elapsed": 16663,
		"internal_node_id": "0.0-2.0-0.0",
		"respond_longer": true,
		"response_time": 2876
	},
	{
		"rt": "[4632]",
		"stimulus": "[\"<svg height=\\\"100\\\" width=\\\"100\\\"><circle cx=\\\"50\\\" cy=\\\"50\\\" r=\\\"30\\\" fill=\\\"gray\\\" stroke=\\\"black\\\" stroke-width=\\\"4\\\" /></svg>\",\"<svg height=\\\"100\\\" width=\\\"100\\\"><circle cx=\\\"50\\\" cy=\\\"50\\\" r=\\\"30\\\" fill=\\\"white\\\" stroke=\\\"black\\\" stroke-width=\\\"4\\\" /></svg>\",\"<svg height=\\\"100\\\" width=\\\"100\\\"><circle cx=\\\"50\\\" cy=\\\"50\\\" r=\\\"30\\\" fill=\\\"gray\\\" stroke=\\\"black\\\" stroke-width=\\\"4\\\" /></svg>\",\"<svg height=\\\"100\\\" width=\\\"100\\\"><circle cx=\\\"50\\\" cy=\\\"50\\\" r=\\\"30\\\" fill=\\\"white\\\" stroke=\\\"black\\\" stroke-width=\\\"4\\\" /></svg>\",\"<svg height=\\\"100\\\" width=\\\"100\\\"><circle cx=\\\"50\\\" cy=\\\"50\\\" r=\\\"30\\\" fill=\\\"gray\\\" stroke=\\\"black\\\" stroke-width=\\\"4\\\" /></svg>\",\"<svg height=\\\"100\\\" width=\\\"100\\\"><circle cx=\\\"50\\\" cy=\\\"50\\\" r=\\\"30\\\" fill=\\\"white\\\" stroke=\\\"black\\\" stroke-width=\\\"4\\\" /></svg>\",\"<svg height=\\\"100\\\" width=\\\"100\\\"><circle cx=\\\"50\\\" cy=\\\"50\\\" r=\\\"30\\\" fill=\\\"gray\\\" stroke=\\\"black\\\" stroke-width=\\\"4\\\" /></svg>\",\"<svg height=\\\"100\\\" width=\\\"100\\\"><circle cx=\\\"50\\\" cy=\\\"50\\\" r=\\\"30\\\" fill=\\\"white\\\" stroke=\\\"black\\\" stroke-width=\\\"4\\\" /></svg>\"]",
		"key_press": "[74]",
		"period_ms": 1400,
		"first_flash_ms": 730,
		"flash_time_diff": 30,
		"trial_type": "multi-stim-multi-response",
		"trial_index": 3,
		"time_elapsed": 22349,
		"internal_node_id": "0.0-2.0-1.0",
		"respond_longer": true,
		"response_time": 2502
	},
	{
		"rt": "[5944]",
		"stimulus": "[\"<svg height=\\\"100\\\" width=\\\"100\\\"><circle cx=\\\"50\\\" cy=\\\"50\\\" r=\\\"30\\\" fill=\\\"gray\\\" stroke=\\\"black\\\" stroke-width=\\\"4\\\" /></svg>\",\"<svg height=\\\"100\\\" width=\\\"100\\\"><circle cx=\\\"50\\\" cy=\\\"50\\\" r=\\\"30\\\" fill=\\\"white\\\" stroke=\\\"black\\\" stroke-width=\\\"4\\\" /></svg>\",\"<svg height=\\\"100\\\" width=\\\"100\\\"><circle cx=\\\"50\\\" cy=\\\"50\\\" r=\\\"30\\\" fill=\\\"gray\\\" stroke=\\\"black\\\" stroke-width=\\\"4\\\" /></svg>\",\"<svg height=\\\"100\\\" width=\\\"100\\\"><circle cx=\\\"50\\\" cy=\\\"50\\\" r=\\\"30\\\" fill=\\\"white\\\" stroke=\\\"black\\\" stroke-width=\\\"4\\\" /></svg>\",\"<svg height=\\\"100\\\" width=\\\"100\\\"><circle cx=\\\"50\\\" cy=\\\"50\\\" r=\\\"30\\\" fill=\\\"gray\\\" stroke=\\\"black\\\" stroke-width=\\\"4\\\" /></svg>\",\"<svg height=\\\"100\\\" width=\\\"100\\\"><circle cx=\\\"50\\\" cy=\\\"50\\\" r=\\\"30\\\" fill=\\\"white\\\" stroke=\\\"black\\\" stroke-width=\\\"4\\\" /></svg>\",\"<svg height=\\\"100\\\" width=\\\"100\\\"><circle cx=\\\"50\\\" cy=\\\"50\\\" r=\\\"30\\\" fill=\\\"gray\\\" stroke=\\\"black\\\" stroke-width=\\\"4\\\" /></svg>\",\"<svg height=\\\"100\\\" width=\\\"100\\\"><circle cx=\\\"50\\\" cy=\\\"50\\\" r=\\\"30\\\" fill=\\\"white\\\" stroke=\\\"black\\\" stroke-width=\\\"4\\\" /></svg>\"]",
		"key_press": "[74]",
		"period_ms": 1600,
		"first_flash_ms": 730,
		"flash_time_diff": -70,
		"trial_type": "multi-stim-multi-response",
		"trial_index": 4,
		"time_elapsed": 29205,
		"internal_node_id": "0.0-2.0-2.0",
		"respond_longer": true,
		"response_time": 3614
	},
	{
		"rt": "[3474]",
		"stimulus": "[\"<svg height=\\\"100\\\" width=\\\"100\\\"><circle cx=\\\"50\\\" cy=\\\"50\\\" r=\\\"30\\\" fill=\\\"gray\\\" stroke=\\\"black\\\" stroke-width=\\\"4\\\" /></svg>\",\"<svg height=\\\"100\\\" width=\\\"100\\\"><circle cx=\\\"50\\\" cy=\\\"50\\\" r=\\\"30\\\" fill=\\\"white\\\" stroke=\\\"black\\\" stroke-width=\\\"4\\\" /></svg>\",\"<svg height=\\\"100\\\" width=\\\"100\\\"><circle cx=\\\"50\\\" cy=\\\"50\\\" r=\\\"30\\\" fill=\\\"gray\\\" stroke=\\\"black\\\" stroke-width=\\\"4\\\" /></svg>\",\"<svg height=\\\"100\\\" width=\\\"100\\\"><circle cx=\\\"50\\\" cy=\\\"50\\\" r=\\\"30\\\" fill=\\\"white\\\" stroke=\\\"black\\\" stroke-width=\\\"4\\\" /></svg>\",\"<svg height=\\\"100\\\" width=\\\"100\\\"><circle cx=\\\"50\\\" cy=\\\"50\\\" r=\\\"30\\\" fill=\\\"gray\\\" stroke=\\\"black\\\" stroke-width=\\\"4\\\" /></svg>\",\"<svg height=\\\"100\\\" width=\\\"100\\\"><circle cx=\\\"50\\\" cy=\\\"50\\\" r=\\\"30\\\" fill=\\\"white\\\" stroke=\\\"black\\\" stroke-width=\\\"4\\\" /></svg>\",\"<svg height=\\\"100\\\" width=\\\"100\\\"><circle cx=\\\"50\\\" cy=\\\"50\\\" r=\\\"30\\\" fill=\\\"gray\\\" stroke=\\\"black\\\" stroke-width=\\\"4\\\" /></svg>\",\"<svg height=\\\"100\\\" width=\\\"100\\\"><circle cx=\\\"50\\\" cy=\\\"50\\\" r=\\\"30\\\" fill=\\\"white\\\" stroke=\\\"black\\\" stroke-width=\\\"4\\\" /></svg>\"]",
		"key_press": "[70]",
		"period_ms": 1800,
		"first_flash_ms": 890,
		"flash_time_diff": -10,
		"trial_type": "multi-stim-multi-response",
		"trial_index": 5,
		"time_elapsed": 34845,
		"internal_node_id": "0.0-2.0-3.0",
		"respond_longer": false,
		"response_time": 784
	},
	{
		"rt": "[5924]",
		"stimulus": "[\"<svg height=\\\"100\\\" width=\\\"100\\\"><circle cx=\\\"50\\\" cy=\\\"50\\\" r=\\\"30\\\" fill=\\\"gray\\\" stroke=\\\"black\\\" stroke-width=\\\"4\\\" /></svg>\",\"<svg height=\\\"100\\\" width=\\\"100\\\"><circle cx=\\\"50\\\" cy=\\\"50\\\" r=\\\"30\\\" fill=\\\"white\\\" stroke=\\\"black\\\" stroke-width=\\\"4\\\" /></svg>\",\"<svg height=\\\"100\\\" width=\\\"100\\\"><circle cx=\\\"50\\\" cy=\\\"50\\\" r=\\\"30\\\" fill=\\\"gray\\\" stroke=\\\"black\\\" stroke-width=\\\"4\\\" /></svg>\",\"<svg height=\\\"100\\\" width=\\\"100\\\"><circle cx=\\\"50\\\" cy=\\\"50\\\" r=\\\"30\\\" fill=\\\"white\\\" stroke=\\\"black\\\" stroke-width=\\\"4\\\" /></svg>\",\"<svg height=\\\"100\\\" width=\\\"100\\\"><circle cx=\\\"50\\\" cy=\\\"50\\\" r=\\\"30\\\" fill=\\\"gray\\\" stroke=\\\"black\\\" stroke-width=\\\"4\\\" /></svg>\",\"<svg height=\\\"100\\\" width=\\\"100\\\"><circle cx=\\\"50\\\" cy=\\\"50\\\" r=\\\"30\\\" fill=\\\"white\\\" stroke=\\\"black\\\" stroke-width=\\\"4\\\" /></svg>\",\"<svg height=\\\"100\\\" width=\\\"100\\\"><circle cx=\\\"50\\\" cy=\\\"50\\\" r=\\\"30\\\" fill=\\\"gray\\\" stroke=\\\"black\\\" stroke-width=\\\"4\\\" /></svg>\",\"<svg height=\\\"100\\\" width=\\\"100\\\"><circle cx=\\\"50\\\" cy=\\\"50\\\" r=\\\"30\\\" fill=\\\"white\\\" stroke=\\\"black\\\" stroke-width=\\\"4\\\" /></svg>\"]",
		"key_press": "[74]",
		"period_ms": 1600,
		"first_flash_ms": 810,
		"flash_time_diff": 10,
		"trial_type": "multi-stim-multi-response",
		"trial_index": 6,
		"time_elapsed": 42621,
		"internal_node_id": "0.0-2.0-4.0",
		"respond_longer": true,
		"response_time": 3514
	},
	{
		"rt": "[4437]",
		"stimulus": "[\"<svg height=\\\"100\\\" width=\\\"100\\\"><circle cx=\\\"50\\\" cy=\\\"50\\\" r=\\\"30\\\" fill=\\\"gray\\\" stroke=\\\"black\\\" stroke-width=\\\"4\\\" /></svg>\",\"<svg height=\\\"100\\\" width=\\\"100\\\"><circle cx=\\\"50\\\" cy=\\\"50\\\" r=\\\"30\\\" fill=\\\"white\\\" stroke=\\\"black\\\" stroke-width=\\\"4\\\" /></svg>\",\"<svg height=\\\"100\\\" width=\\\"100\\\"><circle cx=\\\"50\\\" cy=\\\"50\\\" r=\\\"30\\\" fill=\\\"gray\\\" stroke=\\\"black\\\" stroke-width=\\\"4\\\" /></svg>\",\"<svg height=\\\"100\\\" width=\\\"100\\\"><circle cx=\\\"50\\\" cy=\\\"50\\\" r=\\\"30\\\" fill=\\\"white\\\" stroke=\\\"black\\\" stroke-width=\\\"4\\\" /></svg>\",\"<svg height=\\\"100\\\" width=\\\"100\\\"><circle cx=\\\"50\\\" cy=\\\"50\\\" r=\\\"30\\\" fill=\\\"gray\\\" stroke=\\\"black\\\" stroke-width=\\\"4\\\" /></svg>\",\"<svg height=\\\"100\\\" width=\\\"100\\\"><circle cx=\\\"50\\\" cy=\\\"50\\\" r=\\\"30\\\" fill=\\\"white\\\" stroke=\\\"black\\\" stroke-width=\\\"4\\\" /></svg>\",\"<svg height=\\\"100\\\" width=\\\"100\\\"><circle cx=\\\"50\\\" cy=\\\"50\\\" r=\\\"30\\\" fill=\\\"gray\\\" stroke=\\\"black\\\" stroke-width=\\\"4\\\" /></svg>\",\"<svg height=\\\"100\\\" width=\\\"100\\\"><circle cx=\\\"50\\\" cy=\\\"50\\\" r=\\\"30\\\" fill=\\\"white\\\" stroke=\\\"black\\\" stroke-width=\\\"4\\\" /></svg>\"]",
		"key_press": "[74]",
		"period_ms": 1400,
		"first_flash_ms": 930,
		"flash_time_diff": 230,
		"trial_type": "multi-stim-multi-response",
		"trial_index": 7,
		"time_elapsed": 48637,
		"internal_node_id": "0.0-2.0-5.0",
		"respond_longer": true,
		"response_time": 2107
	},
	{
		"rt": "[3130]",
		"stimulus": "[\"<svg height=\\\"100\\\" width=\\\"100\\\"><circle cx=\\\"50\\\" cy=\\\"50\\\" r=\\\"30\\\" fill=\\\"gray\\\" stroke=\\\"black\\\" stroke-width=\\\"4\\\" /></svg>\",\"<svg height=\\\"100\\\" width=\\\"100\\\"><circle cx=\\\"50\\\" cy=\\\"50\\\" r=\\\"30\\\" fill=\\\"white\\\" stroke=\\\"black\\\" stroke-width=\\\"4\\\" /></svg>\",\"<svg height=\\\"100\\\" width=\\\"100\\\"><circle cx=\\\"50\\\" cy=\\\"50\\\" r=\\\"30\\\" fill=\\\"gray\\\" stroke=\\\"black\\\" stroke-width=\\\"4\\\" /></svg>\",\"<svg height=\\\"100\\\" width=\\\"100\\\"><circle cx=\\\"50\\\" cy=\\\"50\\\" r=\\\"30\\\" fill=\\\"white\\\" stroke=\\\"black\\\" stroke-width=\\\"4\\\" /></svg>\",\"<svg height=\\\"100\\\" width=\\\"100\\\"><circle cx=\\\"50\\\" cy=\\\"50\\\" r=\\\"30\\\" fill=\\\"gray\\\" stroke=\\\"black\\\" stroke-width=\\\"4\\\" /></svg>\",\"<svg height=\\\"100\\\" width=\\\"100\\\"><circle cx=\\\"50\\\" cy=\\\"50\\\" r=\\\"30\\\" fill=\\\"white\\\" stroke=\\\"black\\\" stroke-width=\\\"4\\\" /></svg>\",\"<svg height=\\\"100\\\" width=\\\"100\\\"><circle cx=\\\"50\\\" cy=\\\"50\\\" r=\\\"30\\\" fill=\\\"gray\\\" stroke=\\\"black\\\" stroke-width=\\\"4\\\" /></svg>\",\"<svg height=\\\"100\\\" width=\\\"100\\\"><circle cx=\\\"50\\\" cy=\\\"50\\\" r=\\\"30\\\" fill=\\\"white\\\" stroke=\\\"black\\\" stroke-width=\\\"4\\\" /></svg>\"]",
		"key_press": "[70]",
		"period_ms": 1600,
		"first_flash_ms": 690,
		"flash_time_diff": -110,
		"trial_type": "multi-stim-multi-response",
		"trial_index": 8,
		"time_elapsed": 52837,
		"internal_node_id": "0.0-2.0-6.0",
		"respond_longer": false,
		"response_time": 840
	},
	{
		"rt": "[4469]",
		"stimulus": "[\"<svg height=\\\"100\\\" width=\\\"100\\\"><circle cx=\\\"50\\\" cy=\\\"50\\\" r=\\\"30\\\" fill=\\\"gray\\\" stroke=\\\"black\\\" stroke-width=\\\"4\\\" /></svg>\",\"<svg height=\\\"100\\\" width=\\\"100\\\"><circle cx=\\\"50\\\" cy=\\\"50\\\" r=\\\"30\\\" fill=\\\"white\\\" stroke=\\\"black\\\" stroke-width=\\\"4\\\" /></svg>\",\"<svg height=\\\"100\\\" width=\\\"100\\\"><circle cx=\\\"50\\\" cy=\\\"50\\\" r=\\\"30\\\" fill=\\\"gray\\\" stroke=\\\"black\\\" stroke-width=\\\"4\\\" /></svg>\",\"<svg height=\\\"100\\\" width=\\\"100\\\"><circle cx=\\\"50\\\" cy=\\\"50\\\" r=\\\"30\\\" fill=\\\"white\\\" stroke=\\\"black\\\" stroke-width=\\\"4\\\" /></svg>\",\"<svg height=\\\"100\\\" width=\\\"100\\\"><circle cx=\\\"50\\\" cy=\\\"50\\\" r=\\\"30\\\" fill=\\\"gray\\\" stroke=\\\"black\\\" stroke-width=\\\"4\\\" /></svg>\",\"<svg height=\\\"100\\\" width=\\\"100\\\"><circle cx=\\\"50\\\" cy=\\\"50\\\" r=\\\"30\\\" fill=\\\"white\\\" stroke=\\\"black\\\" stroke-width=\\\"4\\\" /></svg>\",\"<svg height=\\\"100\\\" width=\\\"100\\\"><circle cx=\\\"50\\\" cy=\\\"50\\\" r=\\\"30\\\" fill=\\\"gray\\\" stroke=\\\"black\\\" stroke-width=\\\"4\\\" /></svg>\",\"<svg height=\\\"100\\\" width=\\\"100\\\"><circle cx=\\\"50\\\" cy=\\\"50\\\" r=\\\"30\\\" fill=\\\"white\\\" stroke=\\\"black\\\" stroke-width=\\\"4\\\" /></svg>\"]",
		"key_press": "[70]",
		"period_ms": 1800,
		"first_flash_ms": 810,
		"flash_time_diff": -90,
		"trial_type": "multi-stim-multi-response",
		"trial_index": 9,
		"time_elapsed": 59242,
		"internal_node_id": "0.0-2.0-7.0",
		"respond_longer": false,
		"response_time": 1859
	},
	{
		"rt": "[2900]",
		"stimulus": "[\"<svg height=\\\"100\\\" width=\\\"100\\\"><circle cx=\\\"50\\\" cy=\\\"50\\\" r=\\\"30\\\" fill=\\\"gray\\\" stroke=\\\"black\\\" stroke-width=\\\"4\\\" /></svg>\",\"<svg height=\\\"100\\\" width=\\\"100\\\"><circle cx=\\\"50\\\" cy=\\\"50\\\" r=\\\"30\\\" fill=\\\"white\\\" stroke=\\\"black\\\" stroke-width=\\\"4\\\" /></svg>\",\"<svg height=\\\"100\\\" width=\\\"100\\\"><circle cx=\\\"50\\\" cy=\\\"50\\\" r=\\\"30\\\" fill=\\\"gray\\\" stroke=\\\"black\\\" stroke-width=\\\"4\\\" /></svg>\",\"<svg height=\\\"100\\\" width=\\\"100\\\"><circle cx=\\\"50\\\" cy=\\\"50\\\" r=\\\"30\\\" fill=\\\"white\\\" stroke=\\\"black\\\" stroke-width=\\\"4\\\" /></svg>\",\"<svg height=\\\"100\\\" width=\\\"100\\\"><circle cx=\\\"50\\\" cy=\\\"50\\\" r=\\\"30\\\" fill=\\\"gray\\\" stroke=\\\"black\\\" stroke-width=\\\"4\\\" /></svg>\",\"<svg height=\\\"100\\\" width=\\\"100\\\"><circle cx=\\\"50\\\" cy=\\\"50\\\" r=\\\"30\\\" fill=\\\"white\\\" stroke=\\\"black\\\" stroke-width=\\\"4\\\" /></svg>\",\"<svg height=\\\"100\\\" width=\\\"100\\\"><circle cx=\\\"50\\\" cy=\\\"50\\\" r=\\\"30\\\" fill=\\\"gray\\\" stroke=\\\"black\\\" stroke-width=\\\"4\\\" /></svg>\",\"<svg height=\\\"100\\\" width=\\\"100\\\"><circle cx=\\\"50\\\" cy=\\\"50\\\" r=\\\"30\\\" fill=\\\"white\\\" stroke=\\\"black\\\" stroke-width=\\\"4\\\" /></svg>\"]",
		"key_press": "[70]",
		"period_ms": 1600,
		"first_flash_ms": 650,
		"flash_time_diff": -150,
		"trial_type": "multi-stim-multi-response",
		"trial_index": 10,
		"time_elapsed": 63074,
		"internal_node_id": "0.0-2.0-8.0",
		"respond_longer": false,
		"response_time": 650
	},
	{
		"rt": "[3191]",
		"stimulus": "[\"<svg height=\\\"100\\\" width=\\\"100\\\"><circle cx=\\\"50\\\" cy=\\\"50\\\" r=\\\"30\\\" fill=\\\"gray\\\" stroke=\\\"black\\\" stroke-width=\\\"4\\\" /></svg>\",\"<svg height=\\\"100\\\" width=\\\"100\\\"><circle cx=\\\"50\\\" cy=\\\"50\\\" r=\\\"30\\\" fill=\\\"white\\\" stroke=\\\"black\\\" stroke-width=\\\"4\\\" /></svg>\",\"<svg height=\\\"100\\\" width=\\\"100\\\"><circle cx=\\\"50\\\" cy=\\\"50\\\" r=\\\"30\\\" fill=\\\"gray\\\" stroke=\\\"black\\\" stroke-width=\\\"4\\\" /></svg>\",\"<svg height=\\\"100\\\" width=\\\"100\\\"><circle cx=\\\"50\\\" cy=\\\"50\\\" r=\\\"30\\\" fill=\\\"white\\\" stroke=\\\"black\\\" stroke-width=\\\"4\\\" /></svg>\",\"<svg height=\\\"100\\\" width=\\\"100\\\"><circle cx=\\\"50\\\" cy=\\\"50\\\" r=\\\"30\\\" fill=\\\"gray\\\" stroke=\\\"black\\\" stroke-width=\\\"4\\\" /></svg>\",\"<svg height=\\\"100\\\" width=\\\"100\\\"><circle cx=\\\"50\\\" cy=\\\"50\\\" r=\\\"30\\\" fill=\\\"white\\\" stroke=\\\"black\\\" stroke-width=\\\"4\\\" /></svg>\",\"<svg height=\\\"100\\\" width=\\\"100\\\"><circle cx=\\\"50\\\" cy=\\\"50\\\" r=\\\"30\\\" fill=\\\"gray\\\" stroke=\\\"black\\\" stroke-width=\\\"4\\\" /></svg>\",\"<svg height=\\\"100\\\" width=\\\"100\\\"><circle cx=\\\"50\\\" cy=\\\"50\\\" r=\\\"30\\\" fill=\\\"white\\\" stroke=\\\"black\\\" stroke-width=\\\"4\\\" /></svg>\"]",
		"key_press": "[74]",
		"period_ms": 1400,
		"first_flash_ms": 770,
		"flash_time_diff": 70,
		"trial_type": "multi-stim-multi-response",
		"trial_index": 11,
		"time_elapsed": 67369,
		"internal_node_id": "0.0-2.0-9.0",
		"respond_longer": true,
		"response_time": 1021
	},
	{
		"rt": "[4591]",
		"stimulus": "[\"<svg height=\\\"100\\\" width=\\\"100\\\"><circle cx=\\\"50\\\" cy=\\\"50\\\" r=\\\"30\\\" fill=\\\"gray\\\" stroke=\\\"black\\\" stroke-width=\\\"4\\\" /></svg>\",\"<svg height=\\\"100\\\" width=\\\"100\\\"><circle cx=\\\"50\\\" cy=\\\"50\\\" r=\\\"30\\\" fill=\\\"white\\\" stroke=\\\"black\\\" stroke-width=\\\"4\\\" /></svg>\",\"<svg height=\\\"100\\\" width=\\\"100\\\"><circle cx=\\\"50\\\" cy=\\\"50\\\" r=\\\"30\\\" fill=\\\"gray\\\" stroke=\\\"black\\\" stroke-width=\\\"4\\\" /></svg>\",\"<svg height=\\\"100\\\" width=\\\"100\\\"><circle cx=\\\"50\\\" cy=\\\"50\\\" r=\\\"30\\\" fill=\\\"white\\\" stroke=\\\"black\\\" stroke-width=\\\"4\\\" /></svg>\",\"<svg height=\\\"100\\\" width=\\\"100\\\"><circle cx=\\\"50\\\" cy=\\\"50\\\" r=\\\"30\\\" fill=\\\"gray\\\" stroke=\\\"black\\\" stroke-width=\\\"4\\\" /></svg>\",\"<svg height=\\\"100\\\" width=\\\"100\\\"><circle cx=\\\"50\\\" cy=\\\"50\\\" r=\\\"30\\\" fill=\\\"white\\\" stroke=\\\"black\\\" stroke-width=\\\"4\\\" /></svg>\",\"<svg height=\\\"100\\\" width=\\\"100\\\"><circle cx=\\\"50\\\" cy=\\\"50\\\" r=\\\"30\\\" fill=\\\"gray\\\" stroke=\\\"black\\\" stroke-width=\\\"4\\\" /></svg>\",\"<svg height=\\\"100\\\" width=\\\"100\\\"><circle cx=\\\"50\\\" cy=\\\"50\\\" r=\\\"30\\\" fill=\\\"white\\\" stroke=\\\"black\\\" stroke-width=\\\"4\\\" /></svg>\"]",
		"key_press": "[70]",
		"period_ms": 1600,
		"first_flash_ms": 890,
		"flash_time_diff": 90,
		"trial_type": "multi-stim-multi-response",
		"trial_index": 12,
		"time_elapsed": 73410,
		"internal_node_id": "0.0-2.0-10.0",
		"respond_longer": false,
		"response_time": 2101
	},
	{
		"rt": "[4304]",
		"stimulus": "[\"<svg height=\\\"100\\\" width=\\\"100\\\"><circle cx=\\\"50\\\" cy=\\\"50\\\" r=\\\"30\\\" fill=\\\"gray\\\" stroke=\\\"black\\\" stroke-width=\\\"4\\\" /></svg>\",\"<svg height=\\\"100\\\" width=\\\"100\\\"><circle cx=\\\"50\\\" cy=\\\"50\\\" r=\\\"30\\\" fill=\\\"white\\\" stroke=\\\"black\\\" stroke-width=\\\"4\\\" /></svg>\",\"<svg height=\\\"100\\\" width=\\\"100\\\"><circle cx=\\\"50\\\" cy=\\\"50\\\" r=\\\"30\\\" fill=\\\"gray\\\" stroke=\\\"black\\\" stroke-width=\\\"4\\\" /></svg>\",\"<svg height=\\\"100\\\" width=\\\"100\\\"><circle cx=\\\"50\\\" cy=\\\"50\\\" r=\\\"30\\\" fill=\\\"white\\\" stroke=\\\"black\\\" stroke-width=\\\"4\\\" /></svg>\",\"<svg height=\\\"100\\\" width=\\\"100\\\"><circle cx=\\\"50\\\" cy=\\\"50\\\" r=\\\"30\\\" fill=\\\"gray\\\" stroke=\\\"black\\\" stroke-width=\\\"4\\\" /></svg>\",\"<svg height=\\\"100\\\" width=\\\"100\\\"><circle cx=\\\"50\\\" cy=\\\"50\\\" r=\\\"30\\\" fill=\\\"white\\\" stroke=\\\"black\\\" stroke-width=\\\"4\\\" /></svg>\",\"<svg height=\\\"100\\\" width=\\\"100\\\"><circle cx=\\\"50\\\" cy=\\\"50\\\" r=\\\"30\\\" fill=\\\"gray\\\" stroke=\\\"black\\\" stroke-width=\\\"4\\\" /></svg>\",\"<svg height=\\\"100\\\" width=\\\"100\\\"><circle cx=\\\"50\\\" cy=\\\"50\\\" r=\\\"30\\\" fill=\\\"white\\\" stroke=\\\"black\\\" stroke-width=\\\"4\\\" /></svg>\"]",
		"key_press": "[70]",
		"period_ms": 1600,
		"first_flash_ms": 810,
		"flash_time_diff": 10,
		"trial_type": "multi-stim-multi-response",
		"trial_index": 13,
		"time_elapsed": 78506,
		"internal_node_id": "0.0-2.0-11.0",
		"respond_longer": false,
		"response_time": 1894
	},
	{
		"rt": "[4650]",
		"stimulus": "[\"<svg height=\\\"100\\\" width=\\\"100\\\"><circle cx=\\\"50\\\" cy=\\\"50\\\" r=\\\"30\\\" fill=\\\"gray\\\" stroke=\\\"black\\\" stroke-width=\\\"4\\\" /></svg>\",\"<svg height=\\\"100\\\" width=\\\"100\\\"><circle cx=\\\"50\\\" cy=\\\"50\\\" r=\\\"30\\\" fill=\\\"white\\\" stroke=\\\"black\\\" stroke-width=\\\"4\\\" /></svg>\",\"<svg height=\\\"100\\\" width=\\\"100\\\"><circle cx=\\\"50\\\" cy=\\\"50\\\" r=\\\"30\\\" fill=\\\"gray\\\" stroke=\\\"black\\\" stroke-width=\\\"4\\\" /></svg>\",\"<svg height=\\\"100\\\" width=\\\"100\\\"><circle cx=\\\"50\\\" cy=\\\"50\\\" r=\\\"30\\\" fill=\\\"white\\\" stroke=\\\"black\\\" stroke-width=\\\"4\\\" /></svg>\",\"<svg height=\\\"100\\\" width=\\\"100\\\"><circle cx=\\\"50\\\" cy=\\\"50\\\" r=\\\"30\\\" fill=\\\"gray\\\" stroke=\\\"black\\\" stroke-width=\\\"4\\\" /></svg>\",\"<svg height=\\\"100\\\" width=\\\"100\\\"><circle cx=\\\"50\\\" cy=\\\"50\\\" r=\\\"30\\\" fill=\\\"white\\\" stroke=\\\"black\\\" stroke-width=\\\"4\\\" /></svg>\",\"<svg height=\\\"100\\\" width=\\\"100\\\"><circle cx=\\\"50\\\" cy=\\\"50\\\" r=\\\"30\\\" fill=\\\"gray\\\" stroke=\\\"black\\\" stroke-width=\\\"4\\\" /></svg>\",\"<svg height=\\\"100\\\" width=\\\"100\\\"><circle cx=\\\"50\\\" cy=\\\"50\\\" r=\\\"30\\\" fill=\\\"white\\\" stroke=\\\"black\\\" stroke-width=\\\"4\\\" /></svg>\"]",
		"key_press": "[70]",
		"period_ms": 1600,
		"first_flash_ms": 930,
		"flash_time_diff": 130,
		"trial_type": "multi-stim-multi-response",
		"trial_index": 14,
		"time_elapsed": 85354,
		"internal_node_id": "0.0-2.0-12.0",
		"respond_longer": false,
		"response_time": 2120
	},
	{
		"rt": "[4136]",
		"stimulus": "[\"<svg height=\\\"100\\\" width=\\\"100\\\"><circle cx=\\\"50\\\" cy=\\\"50\\\" r=\\\"30\\\" fill=\\\"gray\\\" stroke=\\\"black\\\" stroke-width=\\\"4\\\" /></svg>\",\"<svg height=\\\"100\\\" width=\\\"100\\\"><circle cx=\\\"50\\\" cy=\\\"50\\\" r=\\\"30\\\" fill=\\\"white\\\" stroke=\\\"black\\\" stroke-width=\\\"4\\\" /></svg>\",\"<svg height=\\\"100\\\" width=\\\"100\\\"><circle cx=\\\"50\\\" cy=\\\"50\\\" r=\\\"30\\\" fill=\\\"gray\\\" stroke=\\\"black\\\" stroke-width=\\\"4\\\" /></svg>\",\"<svg height=\\\"100\\\" width=\\\"100\\\"><circle cx=\\\"50\\\" cy=\\\"50\\\" r=\\\"30\\\" fill=\\\"white\\\" stroke=\\\"black\\\" stroke-width=\\\"4\\\" /></svg>\",\"<svg height=\\\"100\\\" width=\\\"100\\\"><circle cx=\\\"50\\\" cy=\\\"50\\\" r=\\\"30\\\" fill=\\\"gray\\\" stroke=\\\"black\\\" stroke-width=\\\"4\\\" /></svg>\",\"<svg height=\\\"100\\\" width=\\\"100\\\"><circle cx=\\\"50\\\" cy=\\\"50\\\" r=\\\"30\\\" fill=\\\"white\\\" stroke=\\\"black\\\" stroke-width=\\\"4\\\" /></svg>\",\"<svg height=\\\"100\\\" width=\\\"100\\\"><circle cx=\\\"50\\\" cy=\\\"50\\\" r=\\\"30\\\" fill=\\\"gray\\\" stroke=\\\"black\\\" stroke-width=\\\"4\\\" /></svg>\",\"<svg height=\\\"100\\\" width=\\\"100\\\"><circle cx=\\\"50\\\" cy=\\\"50\\\" r=\\\"30\\\" fill=\\\"white\\\" stroke=\\\"black\\\" stroke-width=\\\"4\\\" /></svg>\"]",
		"key_press": "[70]",
		"period_ms": 1600,
		"first_flash_ms": 810,
		"flash_time_diff": 10,
		"trial_type": "multi-stim-multi-response",
		"trial_index": 15,
		"time_elapsed": 90514,
		"internal_node_id": "0.0-2.0-13.0",
		"respond_longer": false,
		"response_time": 1726
	},
	{
		"rt": "[4429]",
		"stimulus": "[\"<svg height=\\\"100\\\" width=\\\"100\\\"><circle cx=\\\"50\\\" cy=\\\"50\\\" r=\\\"30\\\" fill=\\\"gray\\\" stroke=\\\"black\\\" stroke-width=\\\"4\\\" /></svg>\",\"<svg height=\\\"100\\\" width=\\\"100\\\"><circle cx=\\\"50\\\" cy=\\\"50\\\" r=\\\"30\\\" fill=\\\"white\\\" stroke=\\\"black\\\" stroke-width=\\\"4\\\" /></svg>\",\"<svg height=\\\"100\\\" width=\\\"100\\\"><circle cx=\\\"50\\\" cy=\\\"50\\\" r=\\\"30\\\" fill=\\\"gray\\\" stroke=\\\"black\\\" stroke-width=\\\"4\\\" /></svg>\",\"<svg height=\\\"100\\\" width=\\\"100\\\"><circle cx=\\\"50\\\" cy=\\\"50\\\" r=\\\"30\\\" fill=\\\"white\\\" stroke=\\\"black\\\" stroke-width=\\\"4\\\" /></svg>\",\"<svg height=\\\"100\\\" width=\\\"100\\\"><circle cx=\\\"50\\\" cy=\\\"50\\\" r=\\\"30\\\" fill=\\\"gray\\\" stroke=\\\"black\\\" stroke-width=\\\"4\\\" /></svg>\",\"<svg height=\\\"100\\\" width=\\\"100\\\"><circle cx=\\\"50\\\" cy=\\\"50\\\" r=\\\"30\\\" fill=\\\"white\\\" stroke=\\\"black\\\" stroke-width=\\\"4\\\" /></svg>\",\"<svg height=\\\"100\\\" width=\\\"100\\\"><circle cx=\\\"50\\\" cy=\\\"50\\\" r=\\\"30\\\" fill=\\\"gray\\\" stroke=\\\"black\\\" stroke-width=\\\"4\\\" /></svg>\",\"<svg height=\\\"100\\\" width=\\\"100\\\"><circle cx=\\\"50\\\" cy=\\\"50\\\" r=\\\"30\\\" fill=\\\"white\\\" stroke=\\\"black\\\" stroke-width=\\\"4\\\" /></svg>\"]",
		"key_press": "[74]",
		"period_ms": 1600,
		"first_flash_ms": 770,
		"flash_time_diff": -30,
		"trial_type": "multi-stim-multi-response",
		"trial_index": 16,
		"time_elapsed": 95930,
		"internal_node_id": "0.0-2.0-14.0",
		"respond_longer": true,
		"response_time": 2059
	},
	{
		"rt": "[3727]",
		"stimulus": "[\"<svg height=\\\"100\\\" width=\\\"100\\\"><circle cx=\\\"50\\\" cy=\\\"50\\\" r=\\\"30\\\" fill=\\\"gray\\\" stroke=\\\"black\\\" stroke-width=\\\"4\\\" /></svg>\",\"<svg height=\\\"100\\\" width=\\\"100\\\"><circle cx=\\\"50\\\" cy=\\\"50\\\" r=\\\"30\\\" fill=\\\"white\\\" stroke=\\\"black\\\" stroke-width=\\\"4\\\" /></svg>\",\"<svg height=\\\"100\\\" width=\\\"100\\\"><circle cx=\\\"50\\\" cy=\\\"50\\\" r=\\\"30\\\" fill=\\\"gray\\\" stroke=\\\"black\\\" stroke-width=\\\"4\\\" /></svg>\",\"<svg height=\\\"100\\\" width=\\\"100\\\"><circle cx=\\\"50\\\" cy=\\\"50\\\" r=\\\"30\\\" fill=\\\"white\\\" stroke=\\\"black\\\" stroke-width=\\\"4\\\" /></svg>\",\"<svg height=\\\"100\\\" width=\\\"100\\\"><circle cx=\\\"50\\\" cy=\\\"50\\\" r=\\\"30\\\" fill=\\\"gray\\\" stroke=\\\"black\\\" stroke-width=\\\"4\\\" /></svg>\",\"<svg height=\\\"100\\\" width=\\\"100\\\"><circle cx=\\\"50\\\" cy=\\\"50\\\" r=\\\"30\\\" fill=\\\"white\\\" stroke=\\\"black\\\" stroke-width=\\\"4\\\" /></svg>\",\"<svg height=\\\"100\\\" width=\\\"100\\\"><circle cx=\\\"50\\\" cy=\\\"50\\\" r=\\\"30\\\" fill=\\\"gray\\\" stroke=\\\"black\\\" stroke-width=\\\"4\\\" /></svg>\",\"<svg height=\\\"100\\\" width=\\\"100\\\"><circle cx=\\\"50\\\" cy=\\\"50\\\" r=\\\"30\\\" fill=\\\"white\\\" stroke=\\\"black\\\" stroke-width=\\\"4\\\" /></svg>\"]",
		"key_press": "[70]",
		"period_ms": 1800,
		"first_flash_ms": 690,
		"flash_time_diff": -210,
		"trial_type": "multi-stim-multi-response",
		"trial_index": 17,
		"time_elapsed": 100425,
		"internal_node_id": "0.0-2.0-15.0",
		"respond_longer": false,
		"response_time": 1237
	},
	{
		"rt": "[4381]",
		"stimulus": "[\"<svg height=\\\"100\\\" width=\\\"100\\\"><circle cx=\\\"50\\\" cy=\\\"50\\\" r=\\\"30\\\" fill=\\\"gray\\\" stroke=\\\"black\\\" stroke-width=\\\"4\\\" /></svg>\",\"<svg height=\\\"100\\\" width=\\\"100\\\"><circle cx=\\\"50\\\" cy=\\\"50\\\" r=\\\"30\\\" fill=\\\"white\\\" stroke=\\\"black\\\" stroke-width=\\\"4\\\" /></svg>\",\"<svg height=\\\"100\\\" width=\\\"100\\\"><circle cx=\\\"50\\\" cy=\\\"50\\\" r=\\\"30\\\" fill=\\\"gray\\\" stroke=\\\"black\\\" stroke-width=\\\"4\\\" /></svg>\",\"<svg height=\\\"100\\\" width=\\\"100\\\"><circle cx=\\\"50\\\" cy=\\\"50\\\" r=\\\"30\\\" fill=\\\"white\\\" stroke=\\\"black\\\" stroke-width=\\\"4\\\" /></svg>\",\"<svg height=\\\"100\\\" width=\\\"100\\\"><circle cx=\\\"50\\\" cy=\\\"50\\\" r=\\\"30\\\" fill=\\\"gray\\\" stroke=\\\"black\\\" stroke-width=\\\"4\\\" /></svg>\",\"<svg height=\\\"100\\\" width=\\\"100\\\"><circle cx=\\\"50\\\" cy=\\\"50\\\" r=\\\"30\\\" fill=\\\"white\\\" stroke=\\\"black\\\" stroke-width=\\\"4\\\" /></svg>\",\"<svg height=\\\"100\\\" width=\\\"100\\\"><circle cx=\\\"50\\\" cy=\\\"50\\\" r=\\\"30\\\" fill=\\\"gray\\\" stroke=\\\"black\\\" stroke-width=\\\"4\\\" /></svg>\",\"<svg height=\\\"100\\\" width=\\\"100\\\"><circle cx=\\\"50\\\" cy=\\\"50\\\" r=\\\"30\\\" fill=\\\"white\\\" stroke=\\\"black\\\" stroke-width=\\\"4\\\" /></svg>\"]",
		"key_press": "[74]",
		"period_ms": 1400,
		"first_flash_ms": 930,
		"flash_time_diff": 230,
		"trial_type": "multi-stim-multi-response",
		"trial_index": 18,
		"time_elapsed": 106938,
		"internal_node_id": "0.0-2.0-16.0",
		"respond_longer": true,
		"response_time": 2051
	},
	{
		"rt": "[3362]",
		"stimulus": "[\"<svg height=\\\"100\\\" width=\\\"100\\\"><circle cx=\\\"50\\\" cy=\\\"50\\\" r=\\\"30\\\" fill=\\\"gray\\\" stroke=\\\"black\\\" stroke-width=\\\"4\\\" /></svg>\",\"<svg height=\\\"100\\\" width=\\\"100\\\"><circle cx=\\\"50\\\" cy=\\\"50\\\" r=\\\"30\\\" fill=\\\"white\\\" stroke=\\\"black\\\" stroke-width=\\\"4\\\" /></svg>\",\"<svg height=\\\"100\\\" width=\\\"100\\\"><circle cx=\\\"50\\\" cy=\\\"50\\\" r=\\\"30\\\" fill=\\\"gray\\\" stroke=\\\"black\\\" stroke-width=\\\"4\\\" /></svg>\",\"<svg height=\\\"100\\\" width=\\\"100\\\"><circle cx=\\\"50\\\" cy=\\\"50\\\" r=\\\"30\\\" fill=\\\"white\\\" stroke=\\\"black\\\" stroke-width=\\\"4\\\" /></svg>\",\"<svg height=\\\"100\\\" width=\\\"100\\\"><circle cx=\\\"50\\\" cy=\\\"50\\\" r=\\\"30\\\" fill=\\\"gray\\\" stroke=\\\"black\\\" stroke-width=\\\"4\\\" /></svg>\",\"<svg height=\\\"100\\\" width=\\\"100\\\"><circle cx=\\\"50\\\" cy=\\\"50\\\" r=\\\"30\\\" fill=\\\"white\\\" stroke=\\\"black\\\" stroke-width=\\\"4\\\" /></svg>\",\"<svg height=\\\"100\\\" width=\\\"100\\\"><circle cx=\\\"50\\\" cy=\\\"50\\\" r=\\\"30\\\" fill=\\\"gray\\\" stroke=\\\"black\\\" stroke-width=\\\"4\\\" /></svg>\",\"<svg height=\\\"100\\\" width=\\\"100\\\"><circle cx=\\\"50\\\" cy=\\\"50\\\" r=\\\"30\\\" fill=\\\"white\\\" stroke=\\\"black\\\" stroke-width=\\\"4\\\" /></svg>\"]",
		"key_press": "[74]",
		"period_ms": 1400,
		"first_flash_ms": 850,
		"flash_time_diff": 150,
		"trial_type": "multi-stim-multi-response",
		"trial_index": 19,
		"time_elapsed": 112322,
		"internal_node_id": "0.0-2.0-17.0",
		"respond_longer": true,
		"response_time": 1112
	},
	{
		"rt": "[5350]",
		"stimulus": "[\"<svg height=\\\"100\\\" width=\\\"100\\\"><circle cx=\\\"50\\\" cy=\\\"50\\\" r=\\\"30\\\" fill=\\\"gray\\\" stroke=\\\"black\\\" stroke-width=\\\"4\\\" /></svg>\",\"<svg height=\\\"100\\\" width=\\\"100\\\"><circle cx=\\\"50\\\" cy=\\\"50\\\" r=\\\"30\\\" fill=\\\"white\\\" stroke=\\\"black\\\" stroke-width=\\\"4\\\" /></svg>\",\"<svg height=\\\"100\\\" width=\\\"100\\\"><circle cx=\\\"50\\\" cy=\\\"50\\\" r=\\\"30\\\" fill=\\\"gray\\\" stroke=\\\"black\\\" stroke-width=\\\"4\\\" /></svg>\",\"<svg height=\\\"100\\\" width=\\\"100\\\"><circle cx=\\\"50\\\" cy=\\\"50\\\" r=\\\"30\\\" fill=\\\"white\\\" stroke=\\\"black\\\" stroke-width=\\\"4\\\" /></svg>\",\"<svg height=\\\"100\\\" width=\\\"100\\\"><circle cx=\\\"50\\\" cy=\\\"50\\\" r=\\\"30\\\" fill=\\\"gray\\\" stroke=\\\"black\\\" stroke-width=\\\"4\\\" /></svg>\",\"<svg height=\\\"100\\\" width=\\\"100\\\"><circle cx=\\\"50\\\" cy=\\\"50\\\" r=\\\"30\\\" fill=\\\"white\\\" stroke=\\\"black\\\" stroke-width=\\\"4\\\" /></svg>\",\"<svg height=\\\"100\\\" width=\\\"100\\\"><circle cx=\\\"50\\\" cy=\\\"50\\\" r=\\\"30\\\" fill=\\\"gray\\\" stroke=\\\"black\\\" stroke-width=\\\"4\\\" /></svg>\",\"<svg height=\\\"100\\\" width=\\\"100\\\"><circle cx=\\\"50\\\" cy=\\\"50\\\" r=\\\"30\\\" fill=\\\"white\\\" stroke=\\\"black\\\" stroke-width=\\\"4\\\" /></svg>\"]",
		"key_press": "[74]",
		"period_ms": 1400,
		"first_flash_ms": 650,
		"flash_time_diff": -50,
		"trial_type": "multi-stim-multi-response",
		"trial_index": 20,
		"time_elapsed": 119886,
		"internal_node_id": "0.0-2.0-18.0",
		"respond_longer": true,
		"response_time": 3300
	},
	{
		"rt": "[2637]",
		"stimulus": "[\"<svg height=\\\"100\\\" width=\\\"100\\\"><circle cx=\\\"50\\\" cy=\\\"50\\\" r=\\\"30\\\" fill=\\\"gray\\\" stroke=\\\"black\\\" stroke-width=\\\"4\\\" /></svg>\",\"<svg height=\\\"100\\\" width=\\\"100\\\"><circle cx=\\\"50\\\" cy=\\\"50\\\" r=\\\"30\\\" fill=\\\"white\\\" stroke=\\\"black\\\" stroke-width=\\\"4\\\" /></svg>\",\"<svg height=\\\"100\\\" width=\\\"100\\\"><circle cx=\\\"50\\\" cy=\\\"50\\\" r=\\\"30\\\" fill=\\\"gray\\\" stroke=\\\"black\\\" stroke-width=\\\"4\\\" /></svg>\",\"<svg height=\\\"100\\\" width=\\\"100\\\"><circle cx=\\\"50\\\" cy=\\\"50\\\" r=\\\"30\\\" fill=\\\"white\\\" stroke=\\\"black\\\" stroke-width=\\\"4\\\" /></svg>\",\"<svg height=\\\"100\\\" width=\\\"100\\\"><circle cx=\\\"50\\\" cy=\\\"50\\\" r=\\\"30\\\" fill=\\\"gray\\\" stroke=\\\"black\\\" stroke-width=\\\"4\\\" /></svg>\",\"<svg height=\\\"100\\\" width=\\\"100\\\"><circle cx=\\\"50\\\" cy=\\\"50\\\" r=\\\"30\\\" fill=\\\"white\\\" stroke=\\\"black\\\" stroke-width=\\\"4\\\" /></svg>\",\"<svg height=\\\"100\\\" width=\\\"100\\\"><circle cx=\\\"50\\\" cy=\\\"50\\\" r=\\\"30\\\" fill=\\\"gray\\\" stroke=\\\"black\\\" stroke-width=\\\"4\\\" /></svg>\",\"<svg height=\\\"100\\\" width=\\\"100\\\"><circle cx=\\\"50\\\" cy=\\\"50\\\" r=\\\"30\\\" fill=\\\"white\\\" stroke=\\\"black\\\" stroke-width=\\\"4\\\" /></svg>\"]",
		"key_press": "[70]",
		"period_ms": 1800,
		"first_flash_ms": 650,
		"flash_time_diff": -250,
		"trial_type": "multi-stim-multi-response",
		"trial_index": 21,
		"time_elapsed": 123351,
		"internal_node_id": "0.0-2.0-19.0",
		"respond_longer": false,
		"response_time": 187
	},
	{
		"rt": "[3306]",
		"stimulus": "[\"<svg height=\\\"100\\\" width=\\\"100\\\"><circle cx=\\\"50\\\" cy=\\\"50\\\" r=\\\"30\\\" fill=\\\"gray\\\" stroke=\\\"black\\\" stroke-width=\\\"4\\\" /></svg>\",\"<svg height=\\\"100\\\" width=\\\"100\\\"><circle cx=\\\"50\\\" cy=\\\"50\\\" r=\\\"30\\\" fill=\\\"white\\\" stroke=\\\"black\\\" stroke-width=\\\"4\\\" /></svg>\",\"<svg height=\\\"100\\\" width=\\\"100\\\"><circle cx=\\\"50\\\" cy=\\\"50\\\" r=\\\"30\\\" fill=\\\"gray\\\" stroke=\\\"black\\\" stroke-width=\\\"4\\\" /></svg>\",\"<svg height=\\\"100\\\" width=\\\"100\\\"><circle cx=\\\"50\\\" cy=\\\"50\\\" r=\\\"30\\\" fill=\\\"white\\\" stroke=\\\"black\\\" stroke-width=\\\"4\\\" /></svg>\",\"<svg height=\\\"100\\\" width=\\\"100\\\"><circle cx=\\\"50\\\" cy=\\\"50\\\" r=\\\"30\\\" fill=\\\"gray\\\" stroke=\\\"black\\\" stroke-width=\\\"4\\\" /></svg>\",\"<svg height=\\\"100\\\" width=\\\"100\\\"><circle cx=\\\"50\\\" cy=\\\"50\\\" r=\\\"30\\\" fill=\\\"white\\\" stroke=\\\"black\\\" stroke-width=\\\"4\\\" /></svg>\",\"<svg height=\\\"100\\\" width=\\\"100\\\"><circle cx=\\\"50\\\" cy=\\\"50\\\" r=\\\"30\\\" fill=\\\"gray\\\" stroke=\\\"black\\\" stroke-width=\\\"4\\\" /></svg>\",\"<svg height=\\\"100\\\" width=\\\"100\\\"><circle cx=\\\"50\\\" cy=\\\"50\\\" r=\\\"30\\\" fill=\\\"white\\\" stroke=\\\"black\\\" stroke-width=\\\"4\\\" /></svg>\"]",
		"key_press": "[70]",
		"period_ms": 1800,
		"first_flash_ms": 810,
		"flash_time_diff": -90,
		"trial_type": "multi-stim-multi-response",
		"trial_index": 22,
		"time_elapsed": 127687,
		"internal_node_id": "0.0-2.0-20.0",
		"respond_longer": false,
		"response_time": 696
	},
	{
		"rt": "[3058]",
		"stimulus": "[\"<svg height=\\\"100\\\" width=\\\"100\\\"><circle cx=\\\"50\\\" cy=\\\"50\\\" r=\\\"30\\\" fill=\\\"gray\\\" stroke=\\\"black\\\" stroke-width=\\\"4\\\" /></svg>\",\"<svg height=\\\"100\\\" width=\\\"100\\\"><circle cx=\\\"50\\\" cy=\\\"50\\\" r=\\\"30\\\" fill=\\\"white\\\" stroke=\\\"black\\\" stroke-width=\\\"4\\\" /></svg>\",\"<svg height=\\\"100\\\" width=\\\"100\\\"><circle cx=\\\"50\\\" cy=\\\"50\\\" r=\\\"30\\\" fill=\\\"gray\\\" stroke=\\\"black\\\" stroke-width=\\\"4\\\" /></svg>\",\"<svg height=\\\"100\\\" width=\\\"100\\\"><circle cx=\\\"50\\\" cy=\\\"50\\\" r=\\\"30\\\" fill=\\\"white\\\" stroke=\\\"black\\\" stroke-width=\\\"4\\\" /></svg>\",\"<svg height=\\\"100\\\" width=\\\"100\\\"><circle cx=\\\"50\\\" cy=\\\"50\\\" r=\\\"30\\\" fill=\\\"gray\\\" stroke=\\\"black\\\" stroke-width=\\\"4\\\" /></svg>\",\"<svg height=\\\"100\\\" width=\\\"100\\\"><circle cx=\\\"50\\\" cy=\\\"50\\\" r=\\\"30\\\" fill=\\\"white\\\" stroke=\\\"black\\\" stroke-width=\\\"4\\\" /></svg>\",\"<svg height=\\\"100\\\" width=\\\"100\\\"><circle cx=\\\"50\\\" cy=\\\"50\\\" r=\\\"30\\\" fill=\\\"gray\\\" stroke=\\\"black\\\" stroke-width=\\\"4\\\" /></svg>\",\"<svg height=\\\"100\\\" width=\\\"100\\\"><circle cx=\\\"50\\\" cy=\\\"50\\\" r=\\\"30\\\" fill=\\\"white\\\" stroke=\\\"black\\\" stroke-width=\\\"4\\\" /></svg>\"]",
		"key_press": "[70]",
		"period_ms": 1400,
		"first_flash_ms": 810,
		"flash_time_diff": 110,
		"trial_type": "multi-stim-multi-response",
		"trial_index": 23,
		"time_elapsed": 132494,
		"internal_node_id": "0.0-2.0-21.0",
		"respond_longer": false,
		"response_time": 848
	},
	{
		"rt": "[5628]",
		"stimulus": "[\"<svg height=\\\"100\\\" width=\\\"100\\\"><circle cx=\\\"50\\\" cy=\\\"50\\\" r=\\\"30\\\" fill=\\\"gray\\\" stroke=\\\"black\\\" stroke-width=\\\"4\\\" /></svg>\",\"<svg height=\\\"100\\\" width=\\\"100\\\"><circle cx=\\\"50\\\" cy=\\\"50\\\" r=\\\"30\\\" fill=\\\"white\\\" stroke=\\\"black\\\" stroke-width=\\\"4\\\" /></svg>\",\"<svg height=\\\"100\\\" width=\\\"100\\\"><circle cx=\\\"50\\\" cy=\\\"50\\\" r=\\\"30\\\" fill=\\\"gray\\\" stroke=\\\"black\\\" stroke-width=\\\"4\\\" /></svg>\",\"<svg height=\\\"100\\\" width=\\\"100\\\"><circle cx=\\\"50\\\" cy=\\\"50\\\" r=\\\"30\\\" fill=\\\"white\\\" stroke=\\\"black\\\" stroke-width=\\\"4\\\" /></svg>\",\"<svg height=\\\"100\\\" width=\\\"100\\\"><circle cx=\\\"50\\\" cy=\\\"50\\\" r=\\\"30\\\" fill=\\\"gray\\\" stroke=\\\"black\\\" stroke-width=\\\"4\\\" /></svg>\",\"<svg height=\\\"100\\\" width=\\\"100\\\"><circle cx=\\\"50\\\" cy=\\\"50\\\" r=\\\"30\\\" fill=\\\"white\\\" stroke=\\\"black\\\" stroke-width=\\\"4\\\" /></svg>\",\"<svg height=\\\"100\\\" width=\\\"100\\\"><circle cx=\\\"50\\\" cy=\\\"50\\\" r=\\\"30\\\" fill=\\\"gray\\\" stroke=\\\"black\\\" stroke-width=\\\"4\\\" /></svg>\",\"<svg height=\\\"100\\\" width=\\\"100\\\"><circle cx=\\\"50\\\" cy=\\\"50\\\" r=\\\"30\\\" fill=\\\"white\\\" stroke=\\\"black\\\" stroke-width=\\\"4\\\" /></svg>\"]",
		"key_press": "[70]",
		"period_ms": 1400,
		"first_flash_ms": 810,
		"flash_time_diff": 110,
		"trial_type": "multi-stim-multi-response",
		"trial_index": 24,
		"time_elapsed": 139127,
		"internal_node_id": "0.0-2.0-22.0",
		"respond_longer": false,
		"response_time": 3418
	},
	{
		"rt": "[4367]",
		"stimulus": "[\"<svg height=\\\"100\\\" width=\\\"100\\\"><circle cx=\\\"50\\\" cy=\\\"50\\\" r=\\\"30\\\" fill=\\\"gray\\\" stroke=\\\"black\\\" stroke-width=\\\"4\\\" /></svg>\",\"<svg height=\\\"100\\\" width=\\\"100\\\"><circle cx=\\\"50\\\" cy=\\\"50\\\" r=\\\"30\\\" fill=\\\"white\\\" stroke=\\\"black\\\" stroke-width=\\\"4\\\" /></svg>\",\"<svg height=\\\"100\\\" width=\\\"100\\\"><circle cx=\\\"50\\\" cy=\\\"50\\\" r=\\\"30\\\" fill=\\\"gray\\\" stroke=\\\"black\\\" stroke-width=\\\"4\\\" /></svg>\",\"<svg height=\\\"100\\\" width=\\\"100\\\"><circle cx=\\\"50\\\" cy=\\\"50\\\" r=\\\"30\\\" fill=\\\"white\\\" stroke=\\\"black\\\" stroke-width=\\\"4\\\" /></svg>\",\"<svg height=\\\"100\\\" width=\\\"100\\\"><circle cx=\\\"50\\\" cy=\\\"50\\\" r=\\\"30\\\" fill=\\\"gray\\\" stroke=\\\"black\\\" stroke-width=\\\"4\\\" /></svg>\",\"<svg height=\\\"100\\\" width=\\\"100\\\"><circle cx=\\\"50\\\" cy=\\\"50\\\" r=\\\"30\\\" fill=\\\"white\\\" stroke=\\\"black\\\" stroke-width=\\\"4\\\" /></svg>\",\"<svg height=\\\"100\\\" width=\\\"100\\\"><circle cx=\\\"50\\\" cy=\\\"50\\\" r=\\\"30\\\" fill=\\\"gray\\\" stroke=\\\"black\\\" stroke-width=\\\"4\\\" /></svg>\",\"<svg height=\\\"100\\\" width=\\\"100\\\"><circle cx=\\\"50\\\" cy=\\\"50\\\" r=\\\"30\\\" fill=\\\"white\\\" stroke=\\\"black\\\" stroke-width=\\\"4\\\" /></svg>\"]",
		"key_press": "[70]",
		"period_ms": 1600,
		"first_flash_ms": 770,
		"flash_time_diff": -30,
		"trial_type": "multi-stim-multi-response",
		"trial_index": 25,
		"time_elapsed": 145126,
		"internal_node_id": "0.0-2.0-23.0",
		"respond_longer": false,
		"response_time": 1997
	},
	{
		"rt": "[4566]",
		"stimulus": "[\"<svg height=\\\"100\\\" width=\\\"100\\\"><circle cx=\\\"50\\\" cy=\\\"50\\\" r=\\\"30\\\" fill=\\\"gray\\\" stroke=\\\"black\\\" stroke-width=\\\"4\\\" /></svg>\",\"<svg height=\\\"100\\\" width=\\\"100\\\"><circle cx=\\\"50\\\" cy=\\\"50\\\" r=\\\"30\\\" fill=\\\"white\\\" stroke=\\\"black\\\" stroke-width=\\\"4\\\" /></svg>\",\"<svg height=\\\"100\\\" width=\\\"100\\\"><circle cx=\\\"50\\\" cy=\\\"50\\\" r=\\\"30\\\" fill=\\\"gray\\\" stroke=\\\"black\\\" stroke-width=\\\"4\\\" /></svg>\",\"<svg height=\\\"100\\\" width=\\\"100\\\"><circle cx=\\\"50\\\" cy=\\\"50\\\" r=\\\"30\\\" fill=\\\"white\\\" stroke=\\\"black\\\" stroke-width=\\\"4\\\" /></svg>\",\"<svg height=\\\"100\\\" width=\\\"100\\\"><circle cx=\\\"50\\\" cy=\\\"50\\\" r=\\\"30\\\" fill=\\\"gray\\\" stroke=\\\"black\\\" stroke-width=\\\"4\\\" /></svg>\",\"<svg height=\\\"100\\\" width=\\\"100\\\"><circle cx=\\\"50\\\" cy=\\\"50\\\" r=\\\"30\\\" fill=\\\"white\\\" stroke=\\\"black\\\" stroke-width=\\\"4\\\" /></svg>\",\"<svg height=\\\"100\\\" width=\\\"100\\\"><circle cx=\\\"50\\\" cy=\\\"50\\\" r=\\\"30\\\" fill=\\\"gray\\\" stroke=\\\"black\\\" stroke-width=\\\"4\\\" /></svg>\",\"<svg height=\\\"100\\\" width=\\\"100\\\"><circle cx=\\\"50\\\" cy=\\\"50\\\" r=\\\"30\\\" fill=\\\"white\\\" stroke=\\\"black\\\" stroke-width=\\\"4\\\" /></svg>\"]",
		"key_press": "[70]",
		"period_ms": 1600,
		"first_flash_ms": 850,
		"flash_time_diff": 50,
		"trial_type": "multi-stim-multi-response",
		"trial_index": 26,
		"time_elapsed": 151478,
		"internal_node_id": "0.0-2.0-24.0",
		"respond_longer": false,
		"response_time": 2116
	},
	{
		"rt": "[4217]",
		"stimulus": "[\"<svg height=\\\"100\\\" width=\\\"100\\\"><circle cx=\\\"50\\\" cy=\\\"50\\\" r=\\\"30\\\" fill=\\\"gray\\\" stroke=\\\"black\\\" stroke-width=\\\"4\\\" /></svg>\",\"<svg height=\\\"100\\\" width=\\\"100\\\"><circle cx=\\\"50\\\" cy=\\\"50\\\" r=\\\"30\\\" fill=\\\"white\\\" stroke=\\\"black\\\" stroke-width=\\\"4\\\" /></svg>\",\"<svg height=\\\"100\\\" width=\\\"100\\\"><circle cx=\\\"50\\\" cy=\\\"50\\\" r=\\\"30\\\" fill=\\\"gray\\\" stroke=\\\"black\\\" stroke-width=\\\"4\\\" /></svg>\",\"<svg height=\\\"100\\\" width=\\\"100\\\"><circle cx=\\\"50\\\" cy=\\\"50\\\" r=\\\"30\\\" fill=\\\"white\\\" stroke=\\\"black\\\" stroke-width=\\\"4\\\" /></svg>\",\"<svg height=\\\"100\\\" width=\\\"100\\\"><circle cx=\\\"50\\\" cy=\\\"50\\\" r=\\\"30\\\" fill=\\\"gray\\\" stroke=\\\"black\\\" stroke-width=\\\"4\\\" /></svg>\",\"<svg height=\\\"100\\\" width=\\\"100\\\"><circle cx=\\\"50\\\" cy=\\\"50\\\" r=\\\"30\\\" fill=\\\"white\\\" stroke=\\\"black\\\" stroke-width=\\\"4\\\" /></svg>\",\"<svg height=\\\"100\\\" width=\\\"100\\\"><circle cx=\\\"50\\\" cy=\\\"50\\\" r=\\\"30\\\" fill=\\\"gray\\\" stroke=\\\"black\\\" stroke-width=\\\"4\\\" /></svg>\",\"<svg height=\\\"100\\\" width=\\\"100\\\"><circle cx=\\\"50\\\" cy=\\\"50\\\" r=\\\"30\\\" fill=\\\"white\\\" stroke=\\\"black\\\" stroke-width=\\\"4\\\" /></svg>\"]",
		"key_press": "[70]",
		"period_ms": 1800,
		"first_flash_ms": 890,
		"flash_time_diff": -10,
		"trial_type": "multi-stim-multi-response",
		"trial_index": 27,
		"time_elapsed": 157230,
		"internal_node_id": "0.0-2.0-25.0",
		"respond_longer": false,
		"response_time": 1527
	},
	{
		"rt": "[3770]",
		"stimulus": "[\"<svg height=\\\"100\\\" width=\\\"100\\\"><circle cx=\\\"50\\\" cy=\\\"50\\\" r=\\\"30\\\" fill=\\\"gray\\\" stroke=\\\"black\\\" stroke-width=\\\"4\\\" /></svg>\",\"<svg height=\\\"100\\\" width=\\\"100\\\"><circle cx=\\\"50\\\" cy=\\\"50\\\" r=\\\"30\\\" fill=\\\"white\\\" stroke=\\\"black\\\" stroke-width=\\\"4\\\" /></svg>\",\"<svg height=\\\"100\\\" width=\\\"100\\\"><circle cx=\\\"50\\\" cy=\\\"50\\\" r=\\\"30\\\" fill=\\\"gray\\\" stroke=\\\"black\\\" stroke-width=\\\"4\\\" /></svg>\",\"<svg height=\\\"100\\\" width=\\\"100\\\"><circle cx=\\\"50\\\" cy=\\\"50\\\" r=\\\"30\\\" fill=\\\"white\\\" stroke=\\\"black\\\" stroke-width=\\\"4\\\" /></svg>\",\"<svg height=\\\"100\\\" width=\\\"100\\\"><circle cx=\\\"50\\\" cy=\\\"50\\\" r=\\\"30\\\" fill=\\\"gray\\\" stroke=\\\"black\\\" stroke-width=\\\"4\\\" /></svg>\",\"<svg height=\\\"100\\\" width=\\\"100\\\"><circle cx=\\\"50\\\" cy=\\\"50\\\" r=\\\"30\\\" fill=\\\"white\\\" stroke=\\\"black\\\" stroke-width=\\\"4\\\" /></svg>\",\"<svg height=\\\"100\\\" width=\\\"100\\\"><circle cx=\\\"50\\\" cy=\\\"50\\\" r=\\\"30\\\" fill=\\\"gray\\\" stroke=\\\"black\\\" stroke-width=\\\"4\\\" /></svg>\",\"<svg height=\\\"100\\\" width=\\\"100\\\"><circle cx=\\\"50\\\" cy=\\\"50\\\" r=\\\"30\\\" fill=\\\"white\\\" stroke=\\\"black\\\" stroke-width=\\\"4\\\" /></svg>\"]",
		"key_press": "[70]",
		"period_ms": 1600,
		"first_flash_ms": 730,
		"flash_time_diff": -70,
		"trial_type": "multi-stim-multi-response",
		"trial_index": 28,
		"time_elapsed": 162086,
		"internal_node_id": "0.0-2.0-26.0",
		"respond_longer": false,
		"response_time": 1440
	},
	{
		"rt": "[3485]",
		"stimulus": "[\"<svg height=\\\"100\\\" width=\\\"100\\\"><circle cx=\\\"50\\\" cy=\\\"50\\\" r=\\\"30\\\" fill=\\\"gray\\\" stroke=\\\"black\\\" stroke-width=\\\"4\\\" /></svg>\",\"<svg height=\\\"100\\\" width=\\\"100\\\"><circle cx=\\\"50\\\" cy=\\\"50\\\" r=\\\"30\\\" fill=\\\"white\\\" stroke=\\\"black\\\" stroke-width=\\\"4\\\" /></svg>\",\"<svg height=\\\"100\\\" width=\\\"100\\\"><circle cx=\\\"50\\\" cy=\\\"50\\\" r=\\\"30\\\" fill=\\\"gray\\\" stroke=\\\"black\\\" stroke-width=\\\"4\\\" /></svg>\",\"<svg height=\\\"100\\\" width=\\\"100\\\"><circle cx=\\\"50\\\" cy=\\\"50\\\" r=\\\"30\\\" fill=\\\"white\\\" stroke=\\\"black\\\" stroke-width=\\\"4\\\" /></svg>\",\"<svg height=\\\"100\\\" width=\\\"100\\\"><circle cx=\\\"50\\\" cy=\\\"50\\\" r=\\\"30\\\" fill=\\\"gray\\\" stroke=\\\"black\\\" stroke-width=\\\"4\\\" /></svg>\",\"<svg height=\\\"100\\\" width=\\\"100\\\"><circle cx=\\\"50\\\" cy=\\\"50\\\" r=\\\"30\\\" fill=\\\"white\\\" stroke=\\\"black\\\" stroke-width=\\\"4\\\" /></svg>\",\"<svg height=\\\"100\\\" width=\\\"100\\\"><circle cx=\\\"50\\\" cy=\\\"50\\\" r=\\\"30\\\" fill=\\\"gray\\\" stroke=\\\"black\\\" stroke-width=\\\"4\\\" /></svg>\",\"<svg height=\\\"100\\\" width=\\\"100\\\"><circle cx=\\\"50\\\" cy=\\\"50\\\" r=\\\"30\\\" fill=\\\"white\\\" stroke=\\\"black\\\" stroke-width=\\\"4\\\" /></svg>\"]",
		"key_press": "[70]",
		"period_ms": 1800,
		"first_flash_ms": 890,
		"flash_time_diff": -10,
		"trial_type": "multi-stim-multi-response",
		"trial_index": 29,
		"time_elapsed": 167454,
		"internal_node_id": "0.0-2.0-27.0",
		"respond_longer": false,
		"response_time": 795
	},
	{
		"rt": "[2866]",
		"stimulus": "[\"<svg height=\\\"100\\\" width=\\\"100\\\"><circle cx=\\\"50\\\" cy=\\\"50\\\" r=\\\"30\\\" fill=\\\"gray\\\" stroke=\\\"black\\\" stroke-width=\\\"4\\\" /></svg>\",\"<svg height=\\\"100\\\" width=\\\"100\\\"><circle cx=\\\"50\\\" cy=\\\"50\\\" r=\\\"30\\\" fill=\\\"white\\\" stroke=\\\"black\\\" stroke-width=\\\"4\\\" /></svg>\",\"<svg height=\\\"100\\\" width=\\\"100\\\"><circle cx=\\\"50\\\" cy=\\\"50\\\" r=\\\"30\\\" fill=\\\"gray\\\" stroke=\\\"black\\\" stroke-width=\\\"4\\\" /></svg>\",\"<svg height=\\\"100\\\" width=\\\"100\\\"><circle cx=\\\"50\\\" cy=\\\"50\\\" r=\\\"30\\\" fill=\\\"white\\\" stroke=\\\"black\\\" stroke-width=\\\"4\\\" /></svg>\",\"<svg height=\\\"100\\\" width=\\\"100\\\"><circle cx=\\\"50\\\" cy=\\\"50\\\" r=\\\"30\\\" fill=\\\"gray\\\" stroke=\\\"black\\\" stroke-width=\\\"4\\\" /></svg>\",\"<svg height=\\\"100\\\" width=\\\"100\\\"><circle cx=\\\"50\\\" cy=\\\"50\\\" r=\\\"30\\\" fill=\\\"white\\\" stroke=\\\"black\\\" stroke-width=\\\"4\\\" /></svg>\",\"<svg height=\\\"100\\\" width=\\\"100\\\"><circle cx=\\\"50\\\" cy=\\\"50\\\" r=\\\"30\\\" fill=\\\"gray\\\" stroke=\\\"black\\\" stroke-width=\\\"4\\\" /></svg>\",\"<svg height=\\\"100\\\" width=\\\"100\\\"><circle cx=\\\"50\\\" cy=\\\"50\\\" r=\\\"30\\\" fill=\\\"white\\\" stroke=\\\"black\\\" stroke-width=\\\"4\\\" /></svg>\"]",
		"key_press": "[70]",
		"period_ms": 1600,
		"first_flash_ms": 650,
		"flash_time_diff": -150,
		"trial_type": "multi-stim-multi-response",
		"trial_index": 30,
		"time_elapsed": 171270,
		"internal_node_id": "0.0-2.0-28.0",
		"respond_longer": false,
		"response_time": 616
	},
	{
		"rt": "[3732]",
		"stimulus": "[\"<svg height=\\\"100\\\" width=\\\"100\\\"><circle cx=\\\"50\\\" cy=\\\"50\\\" r=\\\"30\\\" fill=\\\"gray\\\" stroke=\\\"black\\\" stroke-width=\\\"4\\\" /></svg>\",\"<svg height=\\\"100\\\" width=\\\"100\\\"><circle cx=\\\"50\\\" cy=\\\"50\\\" r=\\\"30\\\" fill=\\\"white\\\" stroke=\\\"black\\\" stroke-width=\\\"4\\\" /></svg>\",\"<svg height=\\\"100\\\" width=\\\"100\\\"><circle cx=\\\"50\\\" cy=\\\"50\\\" r=\\\"30\\\" fill=\\\"gray\\\" stroke=\\\"black\\\" stroke-width=\\\"4\\\" /></svg>\",\"<svg height=\\\"100\\\" width=\\\"100\\\"><circle cx=\\\"50\\\" cy=\\\"50\\\" r=\\\"30\\\" fill=\\\"white\\\" stroke=\\\"black\\\" stroke-width=\\\"4\\\" /></svg>\",\"<svg height=\\\"100\\\" width=\\\"100\\\"><circle cx=\\\"50\\\" cy=\\\"50\\\" r=\\\"30\\\" fill=\\\"gray\\\" stroke=\\\"black\\\" stroke-width=\\\"4\\\" /></svg>\",\"<svg height=\\\"100\\\" width=\\\"100\\\"><circle cx=\\\"50\\\" cy=\\\"50\\\" r=\\\"30\\\" fill=\\\"white\\\" stroke=\\\"black\\\" stroke-width=\\\"4\\\" /></svg>\",\"<svg height=\\\"100\\\" width=\\\"100\\\"><circle cx=\\\"50\\\" cy=\\\"50\\\" r=\\\"30\\\" fill=\\\"gray\\\" stroke=\\\"black\\\" stroke-width=\\\"4\\\" /></svg>\",\"<svg height=\\\"100\\\" width=\\\"100\\\"><circle cx=\\\"50\\\" cy=\\\"50\\\" r=\\\"30\\\" fill=\\\"white\\\" stroke=\\\"black\\\" stroke-width=\\\"4\\\" /></svg>\"]",
		"key_press": "[74]",
		"period_ms": 1600,
		"first_flash_ms": 930,
		"flash_time_diff": 130,
		"trial_type": "multi-stim-multi-response",
		"trial_index": 31,
		"time_elapsed": 175846,
		"internal_node_id": "0.0-2.0-29.0",
		"respond_longer": true,
		"response_time": 1202
	},
	{
		"rt": "[5844]",
		"stimulus": "[\"<svg height=\\\"100\\\" width=\\\"100\\\"><circle cx=\\\"50\\\" cy=\\\"50\\\" r=\\\"30\\\" fill=\\\"gray\\\" stroke=\\\"black\\\" stroke-width=\\\"4\\\" /></svg>\",\"<svg height=\\\"100\\\" width=\\\"100\\\"><circle cx=\\\"50\\\" cy=\\\"50\\\" r=\\\"30\\\" fill=\\\"white\\\" stroke=\\\"black\\\" stroke-width=\\\"4\\\" /></svg>\",\"<svg height=\\\"100\\\" width=\\\"100\\\"><circle cx=\\\"50\\\" cy=\\\"50\\\" r=\\\"30\\\" fill=\\\"gray\\\" stroke=\\\"black\\\" stroke-width=\\\"4\\\" /></svg>\",\"<svg height=\\\"100\\\" width=\\\"100\\\"><circle cx=\\\"50\\\" cy=\\\"50\\\" r=\\\"30\\\" fill=\\\"white\\\" stroke=\\\"black\\\" stroke-width=\\\"4\\\" /></svg>\",\"<svg height=\\\"100\\\" width=\\\"100\\\"><circle cx=\\\"50\\\" cy=\\\"50\\\" r=\\\"30\\\" fill=\\\"gray\\\" stroke=\\\"black\\\" stroke-width=\\\"4\\\" /></svg>\",\"<svg height=\\\"100\\\" width=\\\"100\\\"><circle cx=\\\"50\\\" cy=\\\"50\\\" r=\\\"30\\\" fill=\\\"white\\\" stroke=\\\"black\\\" stroke-width=\\\"4\\\" /></svg>\",\"<svg height=\\\"100\\\" width=\\\"100\\\"><circle cx=\\\"50\\\" cy=\\\"50\\\" r=\\\"30\\\" fill=\\\"gray\\\" stroke=\\\"black\\\" stroke-width=\\\"4\\\" /></svg>\",\"<svg height=\\\"100\\\" width=\\\"100\\\"><circle cx=\\\"50\\\" cy=\\\"50\\\" r=\\\"30\\\" fill=\\\"white\\\" stroke=\\\"black\\\" stroke-width=\\\"4\\\" /></svg>\"]",
		"key_press": "[70]",
		"period_ms": 1600,
		"first_flash_ms": 650,
		"flash_time_diff": -150,
		"trial_type": "multi-stim-multi-response",
		"trial_index": 32,
		"time_elapsed": 183810,
		"internal_node_id": "0.0-2.0-30.0",
		"respond_longer": false,
		"response_time": 3594
	},
	{
		"rt": "[4824]",
		"stimulus": "[\"<svg height=\\\"100\\\" width=\\\"100\\\"><circle cx=\\\"50\\\" cy=\\\"50\\\" r=\\\"30\\\" fill=\\\"gray\\\" stroke=\\\"black\\\" stroke-width=\\\"4\\\" /></svg>\",\"<svg height=\\\"100\\\" width=\\\"100\\\"><circle cx=\\\"50\\\" cy=\\\"50\\\" r=\\\"30\\\" fill=\\\"white\\\" stroke=\\\"black\\\" stroke-width=\\\"4\\\" /></svg>\",\"<svg height=\\\"100\\\" width=\\\"100\\\"><circle cx=\\\"50\\\" cy=\\\"50\\\" r=\\\"30\\\" fill=\\\"gray\\\" stroke=\\\"black\\\" stroke-width=\\\"4\\\" /></svg>\",\"<svg height=\\\"100\\\" width=\\\"100\\\"><circle cx=\\\"50\\\" cy=\\\"50\\\" r=\\\"30\\\" fill=\\\"white\\\" stroke=\\\"black\\\" stroke-width=\\\"4\\\" /></svg>\",\"<svg height=\\\"100\\\" width=\\\"100\\\"><circle cx=\\\"50\\\" cy=\\\"50\\\" r=\\\"30\\\" fill=\\\"gray\\\" stroke=\\\"black\\\" stroke-width=\\\"4\\\" /></svg>\",\"<svg height=\\\"100\\\" width=\\\"100\\\"><circle cx=\\\"50\\\" cy=\\\"50\\\" r=\\\"30\\\" fill=\\\"white\\\" stroke=\\\"black\\\" stroke-width=\\\"4\\\" /></svg>\",\"<svg height=\\\"100\\\" width=\\\"100\\\"><circle cx=\\\"50\\\" cy=\\\"50\\\" r=\\\"30\\\" fill=\\\"gray\\\" stroke=\\\"black\\\" stroke-width=\\\"4\\\" /></svg>\",\"<svg height=\\\"100\\\" width=\\\"100\\\"><circle cx=\\\"50\\\" cy=\\\"50\\\" r=\\\"30\\\" fill=\\\"white\\\" stroke=\\\"black\\\" stroke-width=\\\"4\\\" /></svg>\"]",
		"key_press": "[70]",
		"period_ms": 1400,
		"first_flash_ms": 650,
		"flash_time_diff": -50,
		"trial_type": "multi-stim-multi-response",
		"trial_index": 33,
		"time_elapsed": 189937,
		"internal_node_id": "0.0-2.0-31.0",
		"respond_longer": false,
		"response_time": 2774
	},
	{
		"rt": "[4397]",
		"stimulus": "[\"<svg height=\\\"100\\\" width=\\\"100\\\"><circle cx=\\\"50\\\" cy=\\\"50\\\" r=\\\"30\\\" fill=\\\"gray\\\" stroke=\\\"black\\\" stroke-width=\\\"4\\\" /></svg>\",\"<svg height=\\\"100\\\" width=\\\"100\\\"><circle cx=\\\"50\\\" cy=\\\"50\\\" r=\\\"30\\\" fill=\\\"white\\\" stroke=\\\"black\\\" stroke-width=\\\"4\\\" /></svg>\",\"<svg height=\\\"100\\\" width=\\\"100\\\"><circle cx=\\\"50\\\" cy=\\\"50\\\" r=\\\"30\\\" fill=\\\"gray\\\" stroke=\\\"black\\\" stroke-width=\\\"4\\\" /></svg>\",\"<svg height=\\\"100\\\" width=\\\"100\\\"><circle cx=\\\"50\\\" cy=\\\"50\\\" r=\\\"30\\\" fill=\\\"white\\\" stroke=\\\"black\\\" stroke-width=\\\"4\\\" /></svg>\",\"<svg height=\\\"100\\\" width=\\\"100\\\"><circle cx=\\\"50\\\" cy=\\\"50\\\" r=\\\"30\\\" fill=\\\"gray\\\" stroke=\\\"black\\\" stroke-width=\\\"4\\\" /></svg>\",\"<svg height=\\\"100\\\" width=\\\"100\\\"><circle cx=\\\"50\\\" cy=\\\"50\\\" r=\\\"30\\\" fill=\\\"white\\\" stroke=\\\"black\\\" stroke-width=\\\"4\\\" /></svg>\",\"<svg height=\\\"100\\\" width=\\\"100\\\"><circle cx=\\\"50\\\" cy=\\\"50\\\" r=\\\"30\\\" fill=\\\"gray\\\" stroke=\\\"black\\\" stroke-width=\\\"4\\\" /></svg>\",\"<svg height=\\\"100\\\" width=\\\"100\\\"><circle cx=\\\"50\\\" cy=\\\"50\\\" r=\\\"30\\\" fill=\\\"white\\\" stroke=\\\"black\\\" stroke-width=\\\"4\\\" /></svg>\"]",
		"key_press": "[70]",
		"period_ms": 1600,
		"first_flash_ms": 730,
		"flash_time_diff": -70,
		"trial_type": "multi-stim-multi-response",
		"trial_index": 34,
		"time_elapsed": 195418,
		"internal_node_id": "0.0-2.0-32.0",
		"respond_longer": false,
		"response_time": 2067
	},
	{
		"rt": "[4884]",
		"stimulus": "[\"<svg height=\\\"100\\\" width=\\\"100\\\"><circle cx=\\\"50\\\" cy=\\\"50\\\" r=\\\"30\\\" fill=\\\"gray\\\" stroke=\\\"black\\\" stroke-width=\\\"4\\\" /></svg>\",\"<svg height=\\\"100\\\" width=\\\"100\\\"><circle cx=\\\"50\\\" cy=\\\"50\\\" r=\\\"30\\\" fill=\\\"white\\\" stroke=\\\"black\\\" stroke-width=\\\"4\\\" /></svg>\",\"<svg height=\\\"100\\\" width=\\\"100\\\"><circle cx=\\\"50\\\" cy=\\\"50\\\" r=\\\"30\\\" fill=\\\"gray\\\" stroke=\\\"black\\\" stroke-width=\\\"4\\\" /></svg>\",\"<svg height=\\\"100\\\" width=\\\"100\\\"><circle cx=\\\"50\\\" cy=\\\"50\\\" r=\\\"30\\\" fill=\\\"white\\\" stroke=\\\"black\\\" stroke-width=\\\"4\\\" /></svg>\",\"<svg height=\\\"100\\\" width=\\\"100\\\"><circle cx=\\\"50\\\" cy=\\\"50\\\" r=\\\"30\\\" fill=\\\"gray\\\" stroke=\\\"black\\\" stroke-width=\\\"4\\\" /></svg>\",\"<svg height=\\\"100\\\" width=\\\"100\\\"><circle cx=\\\"50\\\" cy=\\\"50\\\" r=\\\"30\\\" fill=\\\"white\\\" stroke=\\\"black\\\" stroke-width=\\\"4\\\" /></svg>\",\"<svg height=\\\"100\\\" width=\\\"100\\\"><circle cx=\\\"50\\\" cy=\\\"50\\\" r=\\\"30\\\" fill=\\\"gray\\\" stroke=\\\"black\\\" stroke-width=\\\"4\\\" /></svg>\",\"<svg height=\\\"100\\\" width=\\\"100\\\"><circle cx=\\\"50\\\" cy=\\\"50\\\" r=\\\"30\\\" fill=\\\"white\\\" stroke=\\\"black\\\" stroke-width=\\\"4\\\" /></svg>\"]",
		"key_press": "[70]",
		"period_ms": 1400,
		"first_flash_ms": 690,
		"flash_time_diff": -10,
		"trial_type": "multi-stim-multi-response",
		"trial_index": 35,
		"time_elapsed": 201170,
		"internal_node_id": "0.0-2.0-33.0",
		"respond_longer": false,
		"response_time": 2794
	},
	{
		"rt": "[4178]",
		"stimulus": "[\"<svg height=\\\"100\\\" width=\\\"100\\\"><circle cx=\\\"50\\\" cy=\\\"50\\\" r=\\\"30\\\" fill=\\\"gray\\\" stroke=\\\"black\\\" stroke-width=\\\"4\\\" /></svg>\",\"<svg height=\\\"100\\\" width=\\\"100\\\"><circle cx=\\\"50\\\" cy=\\\"50\\\" r=\\\"30\\\" fill=\\\"white\\\" stroke=\\\"black\\\" stroke-width=\\\"4\\\" /></svg>\",\"<svg height=\\\"100\\\" width=\\\"100\\\"><circle cx=\\\"50\\\" cy=\\\"50\\\" r=\\\"30\\\" fill=\\\"gray\\\" stroke=\\\"black\\\" stroke-width=\\\"4\\\" /></svg>\",\"<svg height=\\\"100\\\" width=\\\"100\\\"><circle cx=\\\"50\\\" cy=\\\"50\\\" r=\\\"30\\\" fill=\\\"white\\\" stroke=\\\"black\\\" stroke-width=\\\"4\\\" /></svg>\",\"<svg height=\\\"100\\\" width=\\\"100\\\"><circle cx=\\\"50\\\" cy=\\\"50\\\" r=\\\"30\\\" fill=\\\"gray\\\" stroke=\\\"black\\\" stroke-width=\\\"4\\\" /></svg>\",\"<svg height=\\\"100\\\" width=\\\"100\\\"><circle cx=\\\"50\\\" cy=\\\"50\\\" r=\\\"30\\\" fill=\\\"white\\\" stroke=\\\"black\\\" stroke-width=\\\"4\\\" /></svg>\",\"<svg height=\\\"100\\\" width=\\\"100\\\"><circle cx=\\\"50\\\" cy=\\\"50\\\" r=\\\"30\\\" fill=\\\"gray\\\" stroke=\\\"black\\\" stroke-width=\\\"4\\\" /></svg>\",\"<svg height=\\\"100\\\" width=\\\"100\\\"><circle cx=\\\"50\\\" cy=\\\"50\\\" r=\\\"30\\\" fill=\\\"white\\\" stroke=\\\"black\\\" stroke-width=\\\"4\\\" /></svg>\"]",
		"key_press": "[70]",
		"period_ms": 1800,
		"first_flash_ms": 650,
		"flash_time_diff": -250,
		"trial_type": "multi-stim-multi-response",
		"trial_index": 36,
		"time_elapsed": 206210,
		"internal_node_id": "0.0-2.0-34.0",
		"respond_longer": false,
		"response_time": 1728
	},
	{
		"rt": "[3616]",
		"stimulus": "[\"<svg height=\\\"100\\\" width=\\\"100\\\"><circle cx=\\\"50\\\" cy=\\\"50\\\" r=\\\"30\\\" fill=\\\"gray\\\" stroke=\\\"black\\\" stroke-width=\\\"4\\\" /></svg>\",\"<svg height=\\\"100\\\" width=\\\"100\\\"><circle cx=\\\"50\\\" cy=\\\"50\\\" r=\\\"30\\\" fill=\\\"white\\\" stroke=\\\"black\\\" stroke-width=\\\"4\\\" /></svg>\",\"<svg height=\\\"100\\\" width=\\\"100\\\"><circle cx=\\\"50\\\" cy=\\\"50\\\" r=\\\"30\\\" fill=\\\"gray\\\" stroke=\\\"black\\\" stroke-width=\\\"4\\\" /></svg>\",\"<svg height=\\\"100\\\" width=\\\"100\\\"><circle cx=\\\"50\\\" cy=\\\"50\\\" r=\\\"30\\\" fill=\\\"white\\\" stroke=\\\"black\\\" stroke-width=\\\"4\\\" /></svg>\",\"<svg height=\\\"100\\\" width=\\\"100\\\"><circle cx=\\\"50\\\" cy=\\\"50\\\" r=\\\"30\\\" fill=\\\"gray\\\" stroke=\\\"black\\\" stroke-width=\\\"4\\\" /></svg>\",\"<svg height=\\\"100\\\" width=\\\"100\\\"><circle cx=\\\"50\\\" cy=\\\"50\\\" r=\\\"30\\\" fill=\\\"white\\\" stroke=\\\"black\\\" stroke-width=\\\"4\\\" /></svg>\",\"<svg height=\\\"100\\\" width=\\\"100\\\"><circle cx=\\\"50\\\" cy=\\\"50\\\" r=\\\"30\\\" fill=\\\"gray\\\" stroke=\\\"black\\\" stroke-width=\\\"4\\\" /></svg>\",\"<svg height=\\\"100\\\" width=\\\"100\\\"><circle cx=\\\"50\\\" cy=\\\"50\\\" r=\\\"30\\\" fill=\\\"white\\\" stroke=\\\"black\\\" stroke-width=\\\"4\\\" /></svg>\"]",
		"key_press": "[74]",
		"period_ms": 1400,
		"first_flash_ms": 770,
		"flash_time_diff": 70,
		"trial_type": "multi-stim-multi-response",
		"trial_index": 37,
		"time_elapsed": 211346,
		"internal_node_id": "0.0-2.0-35.0",
		"respond_longer": true,
		"response_time": 1446
	},
	{
		"rt": "[4803]",
		"stimulus": "[\"<svg height=\\\"100\\\" width=\\\"100\\\"><circle cx=\\\"50\\\" cy=\\\"50\\\" r=\\\"30\\\" fill=\\\"gray\\\" stroke=\\\"black\\\" stroke-width=\\\"4\\\" /></svg>\",\"<svg height=\\\"100\\\" width=\\\"100\\\"><circle cx=\\\"50\\\" cy=\\\"50\\\" r=\\\"30\\\" fill=\\\"white\\\" stroke=\\\"black\\\" stroke-width=\\\"4\\\" /></svg>\",\"<svg height=\\\"100\\\" width=\\\"100\\\"><circle cx=\\\"50\\\" cy=\\\"50\\\" r=\\\"30\\\" fill=\\\"gray\\\" stroke=\\\"black\\\" stroke-width=\\\"4\\\" /></svg>\",\"<svg height=\\\"100\\\" width=\\\"100\\\"><circle cx=\\\"50\\\" cy=\\\"50\\\" r=\\\"30\\\" fill=\\\"white\\\" stroke=\\\"black\\\" stroke-width=\\\"4\\\" /></svg>\",\"<svg height=\\\"100\\\" width=\\\"100\\\"><circle cx=\\\"50\\\" cy=\\\"50\\\" r=\\\"30\\\" fill=\\\"gray\\\" stroke=\\\"black\\\" stroke-width=\\\"4\\\" /></svg>\",\"<svg height=\\\"100\\\" width=\\\"100\\\"><circle cx=\\\"50\\\" cy=\\\"50\\\" r=\\\"30\\\" fill=\\\"white\\\" stroke=\\\"black\\\" stroke-width=\\\"4\\\" /></svg>\",\"<svg height=\\\"100\\\" width=\\\"100\\\"><circle cx=\\\"50\\\" cy=\\\"50\\\" r=\\\"30\\\" fill=\\\"gray\\\" stroke=\\\"black\\\" stroke-width=\\\"4\\\" /></svg>\",\"<svg height=\\\"100\\\" width=\\\"100\\\"><circle cx=\\\"50\\\" cy=\\\"50\\\" r=\\\"30\\\" fill=\\\"white\\\" stroke=\\\"black\\\" stroke-width=\\\"4\\\" /></svg>\"]",
		"key_press": "[70]",
		"period_ms": 1800,
		"first_flash_ms": 890,
		"flash_time_diff": -10,
		"trial_type": "multi-stim-multi-response",
		"trial_index": 38,
		"time_elapsed": 218354,
		"internal_node_id": "0.0-2.0-36.0",
		"respond_longer": false,
		"response_time": 2113
	},
	{
		"rt": "[5155]",
		"stimulus": "[\"<svg height=\\\"100\\\" width=\\\"100\\\"><circle cx=\\\"50\\\" cy=\\\"50\\\" r=\\\"30\\\" fill=\\\"gray\\\" stroke=\\\"black\\\" stroke-width=\\\"4\\\" /></svg>\",\"<svg height=\\\"100\\\" width=\\\"100\\\"><circle cx=\\\"50\\\" cy=\\\"50\\\" r=\\\"30\\\" fill=\\\"white\\\" stroke=\\\"black\\\" stroke-width=\\\"4\\\" /></svg>\",\"<svg height=\\\"100\\\" width=\\\"100\\\"><circle cx=\\\"50\\\" cy=\\\"50\\\" r=\\\"30\\\" fill=\\\"gray\\\" stroke=\\\"black\\\" stroke-width=\\\"4\\\" /></svg>\",\"<svg height=\\\"100\\\" width=\\\"100\\\"><circle cx=\\\"50\\\" cy=\\\"50\\\" r=\\\"30\\\" fill=\\\"white\\\" stroke=\\\"black\\\" stroke-width=\\\"4\\\" /></svg>\",\"<svg height=\\\"100\\\" width=\\\"100\\\"><circle cx=\\\"50\\\" cy=\\\"50\\\" r=\\\"30\\\" fill=\\\"gray\\\" stroke=\\\"black\\\" stroke-width=\\\"4\\\" /></svg>\",\"<svg height=\\\"100\\\" width=\\\"100\\\"><circle cx=\\\"50\\\" cy=\\\"50\\\" r=\\\"30\\\" fill=\\\"white\\\" stroke=\\\"black\\\" stroke-width=\\\"4\\\" /></svg>\",\"<svg height=\\\"100\\\" width=\\\"100\\\"><circle cx=\\\"50\\\" cy=\\\"50\\\" r=\\\"30\\\" fill=\\\"gray\\\" stroke=\\\"black\\\" stroke-width=\\\"4\\\" /></svg>\",\"<svg height=\\\"100\\\" width=\\\"100\\\"><circle cx=\\\"50\\\" cy=\\\"50\\\" r=\\\"30\\\" fill=\\\"white\\\" stroke=\\\"black\\\" stroke-width=\\\"4\\\" /></svg>\"]",
		"key_press": "[70]",
		"period_ms": 1800,
		"first_flash_ms": 890,
		"flash_time_diff": -10,
		"trial_type": "multi-stim-multi-response",
		"trial_index": 39,
		"time_elapsed": 225089,
		"internal_node_id": "0.0-2.0-37.0",
		"respond_longer": false,
		"response_time": 2465
	},
	{
		"rt": "[5659]",
		"stimulus": "[\"<svg height=\\\"100\\\" width=\\\"100\\\"><circle cx=\\\"50\\\" cy=\\\"50\\\" r=\\\"30\\\" fill=\\\"gray\\\" stroke=\\\"black\\\" stroke-width=\\\"4\\\" /></svg>\",\"<svg height=\\\"100\\\" width=\\\"100\\\"><circle cx=\\\"50\\\" cy=\\\"50\\\" r=\\\"30\\\" fill=\\\"white\\\" stroke=\\\"black\\\" stroke-width=\\\"4\\\" /></svg>\",\"<svg height=\\\"100\\\" width=\\\"100\\\"><circle cx=\\\"50\\\" cy=\\\"50\\\" r=\\\"30\\\" fill=\\\"gray\\\" stroke=\\\"black\\\" stroke-width=\\\"4\\\" /></svg>\",\"<svg height=\\\"100\\\" width=\\\"100\\\"><circle cx=\\\"50\\\" cy=\\\"50\\\" r=\\\"30\\\" fill=\\\"white\\\" stroke=\\\"black\\\" stroke-width=\\\"4\\\" /></svg>\",\"<svg height=\\\"100\\\" width=\\\"100\\\"><circle cx=\\\"50\\\" cy=\\\"50\\\" r=\\\"30\\\" fill=\\\"gray\\\" stroke=\\\"black\\\" stroke-width=\\\"4\\\" /></svg>\",\"<svg height=\\\"100\\\" width=\\\"100\\\"><circle cx=\\\"50\\\" cy=\\\"50\\\" r=\\\"30\\\" fill=\\\"white\\\" stroke=\\\"black\\\" stroke-width=\\\"4\\\" /></svg>\",\"<svg height=\\\"100\\\" width=\\\"100\\\"><circle cx=\\\"50\\\" cy=\\\"50\\\" r=\\\"30\\\" fill=\\\"gray\\\" stroke=\\\"black\\\" stroke-width=\\\"4\\\" /></svg>\",\"<svg height=\\\"100\\\" width=\\\"100\\\"><circle cx=\\\"50\\\" cy=\\\"50\\\" r=\\\"30\\\" fill=\\\"white\\\" stroke=\\\"black\\\" stroke-width=\\\"4\\\" /></svg>\"]",
		"key_press": "[74]",
		"period_ms": 1400,
		"first_flash_ms": 810,
		"flash_time_diff": 110,
		"trial_type": "multi-stim-multi-response",
		"trial_index": 40,
		"time_elapsed": 232722,
		"internal_node_id": "0.0-2.0-38.0",
		"respond_longer": true,
		"response_time": 3449
	},
	{
		"rt": "[5913]",
		"stimulus": "[\"<svg height=\\\"100\\\" width=\\\"100\\\"><circle cx=\\\"50\\\" cy=\\\"50\\\" r=\\\"30\\\" fill=\\\"gray\\\" stroke=\\\"black\\\" stroke-width=\\\"4\\\" /></svg>\",\"<svg height=\\\"100\\\" width=\\\"100\\\"><circle cx=\\\"50\\\" cy=\\\"50\\\" r=\\\"30\\\" fill=\\\"white\\\" stroke=\\\"black\\\" stroke-width=\\\"4\\\" /></svg>\",\"<svg height=\\\"100\\\" width=\\\"100\\\"><circle cx=\\\"50\\\" cy=\\\"50\\\" r=\\\"30\\\" fill=\\\"gray\\\" stroke=\\\"black\\\" stroke-width=\\\"4\\\" /></svg>\",\"<svg height=\\\"100\\\" width=\\\"100\\\"><circle cx=\\\"50\\\" cy=\\\"50\\\" r=\\\"30\\\" fill=\\\"white\\\" stroke=\\\"black\\\" stroke-width=\\\"4\\\" /></svg>\",\"<svg height=\\\"100\\\" width=\\\"100\\\"><circle cx=\\\"50\\\" cy=\\\"50\\\" r=\\\"30\\\" fill=\\\"gray\\\" stroke=\\\"black\\\" stroke-width=\\\"4\\\" /></svg>\",\"<svg height=\\\"100\\\" width=\\\"100\\\"><circle cx=\\\"50\\\" cy=\\\"50\\\" r=\\\"30\\\" fill=\\\"white\\\" stroke=\\\"black\\\" stroke-width=\\\"4\\\" /></svg>\",\"<svg height=\\\"100\\\" width=\\\"100\\\"><circle cx=\\\"50\\\" cy=\\\"50\\\" r=\\\"30\\\" fill=\\\"gray\\\" stroke=\\\"black\\\" stroke-width=\\\"4\\\" /></svg>\",\"<svg height=\\\"100\\\" width=\\\"100\\\"><circle cx=\\\"50\\\" cy=\\\"50\\\" r=\\\"30\\\" fill=\\\"white\\\" stroke=\\\"black\\\" stroke-width=\\\"4\\\" /></svg>\"]",
		"key_press": "[70]",
		"period_ms": 1600,
		"first_flash_ms": 810,
		"flash_time_diff": 10,
		"trial_type": "multi-stim-multi-response",
		"trial_index": 41,
		"time_elapsed": 240281,
		"internal_node_id": "0.0-2.0-39.0",
		"respond_longer": false,
		"response_time": 3503
	},
	{
		"rt": "[2994]",
		"stimulus": "[\"<svg height=\\\"100\\\" width=\\\"100\\\"><circle cx=\\\"50\\\" cy=\\\"50\\\" r=\\\"30\\\" fill=\\\"gray\\\" stroke=\\\"black\\\" stroke-width=\\\"4\\\" /></svg>\",\"<svg height=\\\"100\\\" width=\\\"100\\\"><circle cx=\\\"50\\\" cy=\\\"50\\\" r=\\\"30\\\" fill=\\\"white\\\" stroke=\\\"black\\\" stroke-width=\\\"4\\\" /></svg>\",\"<svg height=\\\"100\\\" width=\\\"100\\\"><circle cx=\\\"50\\\" cy=\\\"50\\\" r=\\\"30\\\" fill=\\\"gray\\\" stroke=\\\"black\\\" stroke-width=\\\"4\\\" /></svg>\",\"<svg height=\\\"100\\\" width=\\\"100\\\"><circle cx=\\\"50\\\" cy=\\\"50\\\" r=\\\"30\\\" fill=\\\"white\\\" stroke=\\\"black\\\" stroke-width=\\\"4\\\" /></svg>\",\"<svg height=\\\"100\\\" width=\\\"100\\\"><circle cx=\\\"50\\\" cy=\\\"50\\\" r=\\\"30\\\" fill=\\\"gray\\\" stroke=\\\"black\\\" stroke-width=\\\"4\\\" /></svg>\",\"<svg height=\\\"100\\\" width=\\\"100\\\"><circle cx=\\\"50\\\" cy=\\\"50\\\" r=\\\"30\\\" fill=\\\"white\\\" stroke=\\\"black\\\" stroke-width=\\\"4\\\" /></svg>\",\"<svg height=\\\"100\\\" width=\\\"100\\\"><circle cx=\\\"50\\\" cy=\\\"50\\\" r=\\\"30\\\" fill=\\\"gray\\\" stroke=\\\"black\\\" stroke-width=\\\"4\\\" /></svg>\",\"<svg height=\\\"100\\\" width=\\\"100\\\"><circle cx=\\\"50\\\" cy=\\\"50\\\" r=\\\"30\\\" fill=\\\"white\\\" stroke=\\\"black\\\" stroke-width=\\\"4\\\" /></svg>\"]",
		"key_press": "[70]",
		"period_ms": 1800,
		"first_flash_ms": 730,
		"flash_time_diff": -170,
		"trial_type": "multi-stim-multi-response",
		"trial_index": 42,
		"time_elapsed": 245334,
		"internal_node_id": "0.0-2.0-40.0",
		"respond_longer": false,
		"response_time": 464
	},
	{
		"rt": "[6255]",
		"stimulus": "[\"<svg height=\\\"100\\\" width=\\\"100\\\"><circle cx=\\\"50\\\" cy=\\\"50\\\" r=\\\"30\\\" fill=\\\"gray\\\" stroke=\\\"black\\\" stroke-width=\\\"4\\\" /></svg>\",\"<svg height=\\\"100\\\" width=\\\"100\\\"><circle cx=\\\"50\\\" cy=\\\"50\\\" r=\\\"30\\\" fill=\\\"white\\\" stroke=\\\"black\\\" stroke-width=\\\"4\\\" /></svg>\",\"<svg height=\\\"100\\\" width=\\\"100\\\"><circle cx=\\\"50\\\" cy=\\\"50\\\" r=\\\"30\\\" fill=\\\"gray\\\" stroke=\\\"black\\\" stroke-width=\\\"4\\\" /></svg>\",\"<svg height=\\\"100\\\" width=\\\"100\\\"><circle cx=\\\"50\\\" cy=\\\"50\\\" r=\\\"30\\\" fill=\\\"white\\\" stroke=\\\"black\\\" stroke-width=\\\"4\\\" /></svg>\",\"<svg height=\\\"100\\\" width=\\\"100\\\"><circle cx=\\\"50\\\" cy=\\\"50\\\" r=\\\"30\\\" fill=\\\"gray\\\" stroke=\\\"black\\\" stroke-width=\\\"4\\\" /></svg>\",\"<svg height=\\\"100\\\" width=\\\"100\\\"><circle cx=\\\"50\\\" cy=\\\"50\\\" r=\\\"30\\\" fill=\\\"white\\\" stroke=\\\"black\\\" stroke-width=\\\"4\\\" /></svg>\",\"<svg height=\\\"100\\\" width=\\\"100\\\"><circle cx=\\\"50\\\" cy=\\\"50\\\" r=\\\"30\\\" fill=\\\"gray\\\" stroke=\\\"black\\\" stroke-width=\\\"4\\\" /></svg>\",\"<svg height=\\\"100\\\" width=\\\"100\\\"><circle cx=\\\"50\\\" cy=\\\"50\\\" r=\\\"30\\\" fill=\\\"white\\\" stroke=\\\"black\\\" stroke-width=\\\"4\\\" /></svg>\"]",
		"key_press": "[70]",
		"period_ms": 1600,
		"first_flash_ms": 810,
		"flash_time_diff": 10,
		"trial_type": "multi-stim-multi-response",
		"trial_index": 43,
		"time_elapsed": 252981,
		"internal_node_id": "0.0-2.0-41.0",
		"respond_longer": false,
		"response_time": 3845
	},
	{
		"rt": "[4383]",
		"stimulus": "[\"<svg height=\\\"100\\\" width=\\\"100\\\"><circle cx=\\\"50\\\" cy=\\\"50\\\" r=\\\"30\\\" fill=\\\"gray\\\" stroke=\\\"black\\\" stroke-width=\\\"4\\\" /></svg>\",\"<svg height=\\\"100\\\" width=\\\"100\\\"><circle cx=\\\"50\\\" cy=\\\"50\\\" r=\\\"30\\\" fill=\\\"white\\\" stroke=\\\"black\\\" stroke-width=\\\"4\\\" /></svg>\",\"<svg height=\\\"100\\\" width=\\\"100\\\"><circle cx=\\\"50\\\" cy=\\\"50\\\" r=\\\"30\\\" fill=\\\"gray\\\" stroke=\\\"black\\\" stroke-width=\\\"4\\\" /></svg>\",\"<svg height=\\\"100\\\" width=\\\"100\\\"><circle cx=\\\"50\\\" cy=\\\"50\\\" r=\\\"30\\\" fill=\\\"white\\\" stroke=\\\"black\\\" stroke-width=\\\"4\\\" /></svg>\",\"<svg height=\\\"100\\\" width=\\\"100\\\"><circle cx=\\\"50\\\" cy=\\\"50\\\" r=\\\"30\\\" fill=\\\"gray\\\" stroke=\\\"black\\\" stroke-width=\\\"4\\\" /></svg>\",\"<svg height=\\\"100\\\" width=\\\"100\\\"><circle cx=\\\"50\\\" cy=\\\"50\\\" r=\\\"30\\\" fill=\\\"white\\\" stroke=\\\"black\\\" stroke-width=\\\"4\\\" /></svg>\",\"<svg height=\\\"100\\\" width=\\\"100\\\"><circle cx=\\\"50\\\" cy=\\\"50\\\" r=\\\"30\\\" fill=\\\"gray\\\" stroke=\\\"black\\\" stroke-width=\\\"4\\\" /></svg>\",\"<svg height=\\\"100\\\" width=\\\"100\\\"><circle cx=\\\"50\\\" cy=\\\"50\\\" r=\\\"30\\\" fill=\\\"white\\\" stroke=\\\"black\\\" stroke-width=\\\"4\\\" /></svg>\"]",
		"key_press": "[70]",
		"period_ms": 1600,
		"first_flash_ms": 730,
		"flash_time_diff": -70,
		"trial_type": "multi-stim-multi-response",
		"trial_index": 44,
		"time_elapsed": 259261,
		"internal_node_id": "0.0-2.0-42.0",
		"respond_longer": false,
		"response_time": 2053
	},
	{
		"rt": "[5627]",
		"stimulus": "[\"<svg height=\\\"100\\\" width=\\\"100\\\"><circle cx=\\\"50\\\" cy=\\\"50\\\" r=\\\"30\\\" fill=\\\"gray\\\" stroke=\\\"black\\\" stroke-width=\\\"4\\\" /></svg>\",\"<svg height=\\\"100\\\" width=\\\"100\\\"><circle cx=\\\"50\\\" cy=\\\"50\\\" r=\\\"30\\\" fill=\\\"white\\\" stroke=\\\"black\\\" stroke-width=\\\"4\\\" /></svg>\",\"<svg height=\\\"100\\\" width=\\\"100\\\"><circle cx=\\\"50\\\" cy=\\\"50\\\" r=\\\"30\\\" fill=\\\"gray\\\" stroke=\\\"black\\\" stroke-width=\\\"4\\\" /></svg>\",\"<svg height=\\\"100\\\" width=\\\"100\\\"><circle cx=\\\"50\\\" cy=\\\"50\\\" r=\\\"30\\\" fill=\\\"white\\\" stroke=\\\"black\\\" stroke-width=\\\"4\\\" /></svg>\",\"<svg height=\\\"100\\\" width=\\\"100\\\"><circle cx=\\\"50\\\" cy=\\\"50\\\" r=\\\"30\\\" fill=\\\"gray\\\" stroke=\\\"black\\\" stroke-width=\\\"4\\\" /></svg>\",\"<svg height=\\\"100\\\" width=\\\"100\\\"><circle cx=\\\"50\\\" cy=\\\"50\\\" r=\\\"30\\\" fill=\\\"white\\\" stroke=\\\"black\\\" stroke-width=\\\"4\\\" /></svg>\",\"<svg height=\\\"100\\\" width=\\\"100\\\"><circle cx=\\\"50\\\" cy=\\\"50\\\" r=\\\"30\\\" fill=\\\"gray\\\" stroke=\\\"black\\\" stroke-width=\\\"4\\\" /></svg>\",\"<svg height=\\\"100\\\" width=\\\"100\\\"><circle cx=\\\"50\\\" cy=\\\"50\\\" r=\\\"30\\\" fill=\\\"white\\\" stroke=\\\"black\\\" stroke-width=\\\"4\\\" /></svg>\"]",
		"key_press": "[70]",
		"period_ms": 1400,
		"first_flash_ms": 930,
		"flash_time_diff": 230,
		"trial_type": "multi-stim-multi-response",
		"trial_index": 45,
		"time_elapsed": 266533,
		"internal_node_id": "0.0-2.0-43.0",
		"respond_longer": false,
		"response_time": 3297
	},
	{
		"rt": "[6974]",
		"stimulus": "[\"<svg height=\\\"100\\\" width=\\\"100\\\"><circle cx=\\\"50\\\" cy=\\\"50\\\" r=\\\"30\\\" fill=\\\"gray\\\" stroke=\\\"black\\\" stroke-width=\\\"4\\\" /></svg>\",\"<svg height=\\\"100\\\" width=\\\"100\\\"><circle cx=\\\"50\\\" cy=\\\"50\\\" r=\\\"30\\\" fill=\\\"white\\\" stroke=\\\"black\\\" stroke-width=\\\"4\\\" /></svg>\",\"<svg height=\\\"100\\\" width=\\\"100\\\"><circle cx=\\\"50\\\" cy=\\\"50\\\" r=\\\"30\\\" fill=\\\"gray\\\" stroke=\\\"black\\\" stroke-width=\\\"4\\\" /></svg>\",\"<svg height=\\\"100\\\" width=\\\"100\\\"><circle cx=\\\"50\\\" cy=\\\"50\\\" r=\\\"30\\\" fill=\\\"white\\\" stroke=\\\"black\\\" stroke-width=\\\"4\\\" /></svg>\",\"<svg height=\\\"100\\\" width=\\\"100\\\"><circle cx=\\\"50\\\" cy=\\\"50\\\" r=\\\"30\\\" fill=\\\"gray\\\" stroke=\\\"black\\\" stroke-width=\\\"4\\\" /></svg>\",\"<svg height=\\\"100\\\" width=\\\"100\\\"><circle cx=\\\"50\\\" cy=\\\"50\\\" r=\\\"30\\\" fill=\\\"white\\\" stroke=\\\"black\\\" stroke-width=\\\"4\\\" /></svg>\",\"<svg height=\\\"100\\\" width=\\\"100\\\"><circle cx=\\\"50\\\" cy=\\\"50\\\" r=\\\"30\\\" fill=\\\"gray\\\" stroke=\\\"black\\\" stroke-width=\\\"4\\\" /></svg>\",\"<svg height=\\\"100\\\" width=\\\"100\\\"><circle cx=\\\"50\\\" cy=\\\"50\\\" r=\\\"30\\\" fill=\\\"white\\\" stroke=\\\"black\\\" stroke-width=\\\"4\\\" /></svg>\"]",
		"key_press": "[70]",
		"period_ms": 1800,
		"first_flash_ms": 930,
		"flash_time_diff": 30,
		"trial_type": "multi-stim-multi-response",
		"trial_index": 46,
		"time_elapsed": 274405,
		"internal_node_id": "0.0-2.0-44.0",
		"respond_longer": false,
		"response_time": 4244
	},
	{
		"rt": "[4863]",
		"stimulus": "[\"<svg height=\\\"100\\\" width=\\\"100\\\"><circle cx=\\\"50\\\" cy=\\\"50\\\" r=\\\"30\\\" fill=\\\"gray\\\" stroke=\\\"black\\\" stroke-width=\\\"4\\\" /></svg>\",\"<svg height=\\\"100\\\" width=\\\"100\\\"><circle cx=\\\"50\\\" cy=\\\"50\\\" r=\\\"30\\\" fill=\\\"white\\\" stroke=\\\"black\\\" stroke-width=\\\"4\\\" /></svg>\",\"<svg height=\\\"100\\\" width=\\\"100\\\"><circle cx=\\\"50\\\" cy=\\\"50\\\" r=\\\"30\\\" fill=\\\"gray\\\" stroke=\\\"black\\\" stroke-width=\\\"4\\\" /></svg>\",\"<svg height=\\\"100\\\" width=\\\"100\\\"><circle cx=\\\"50\\\" cy=\\\"50\\\" r=\\\"30\\\" fill=\\\"white\\\" stroke=\\\"black\\\" stroke-width=\\\"4\\\" /></svg>\",\"<svg height=\\\"100\\\" width=\\\"100\\\"><circle cx=\\\"50\\\" cy=\\\"50\\\" r=\\\"30\\\" fill=\\\"gray\\\" stroke=\\\"black\\\" stroke-width=\\\"4\\\" /></svg>\",\"<svg height=\\\"100\\\" width=\\\"100\\\"><circle cx=\\\"50\\\" cy=\\\"50\\\" r=\\\"30\\\" fill=\\\"white\\\" stroke=\\\"black\\\" stroke-width=\\\"4\\\" /></svg>\",\"<svg height=\\\"100\\\" width=\\\"100\\\"><circle cx=\\\"50\\\" cy=\\\"50\\\" r=\\\"30\\\" fill=\\\"gray\\\" stroke=\\\"black\\\" stroke-width=\\\"4\\\" /></svg>\",\"<svg height=\\\"100\\\" width=\\\"100\\\"><circle cx=\\\"50\\\" cy=\\\"50\\\" r=\\\"30\\\" fill=\\\"white\\\" stroke=\\\"black\\\" stroke-width=\\\"4\\\" /></svg>\"]",
		"key_press": "[70]",
		"period_ms": 1800,
		"first_flash_ms": 810,
		"flash_time_diff": -90,
		"trial_type": "multi-stim-multi-response",
		"trial_index": 47,
		"time_elapsed": 281270,
		"internal_node_id": "0.0-2.0-45.0",
		"respond_longer": false,
		"response_time": 2253
	},
	{
		"rt": "[5685]",
		"stimulus": "[\"<svg height=\\\"100\\\" width=\\\"100\\\"><circle cx=\\\"50\\\" cy=\\\"50\\\" r=\\\"30\\\" fill=\\\"gray\\\" stroke=\\\"black\\\" stroke-width=\\\"4\\\" /></svg>\",\"<svg height=\\\"100\\\" width=\\\"100\\\"><circle cx=\\\"50\\\" cy=\\\"50\\\" r=\\\"30\\\" fill=\\\"white\\\" stroke=\\\"black\\\" stroke-width=\\\"4\\\" /></svg>\",\"<svg height=\\\"100\\\" width=\\\"100\\\"><circle cx=\\\"50\\\" cy=\\\"50\\\" r=\\\"30\\\" fill=\\\"gray\\\" stroke=\\\"black\\\" stroke-width=\\\"4\\\" /></svg>\",\"<svg height=\\\"100\\\" width=\\\"100\\\"><circle cx=\\\"50\\\" cy=\\\"50\\\" r=\\\"30\\\" fill=\\\"white\\\" stroke=\\\"black\\\" stroke-width=\\\"4\\\" /></svg>\",\"<svg height=\\\"100\\\" width=\\\"100\\\"><circle cx=\\\"50\\\" cy=\\\"50\\\" r=\\\"30\\\" fill=\\\"gray\\\" stroke=\\\"black\\\" stroke-width=\\\"4\\\" /></svg>\",\"<svg height=\\\"100\\\" width=\\\"100\\\"><circle cx=\\\"50\\\" cy=\\\"50\\\" r=\\\"30\\\" fill=\\\"white\\\" stroke=\\\"black\\\" stroke-width=\\\"4\\\" /></svg>\",\"<svg height=\\\"100\\\" width=\\\"100\\\"><circle cx=\\\"50\\\" cy=\\\"50\\\" r=\\\"30\\\" fill=\\\"gray\\\" stroke=\\\"black\\\" stroke-width=\\\"4\\\" /></svg>\",\"<svg height=\\\"100\\\" width=\\\"100\\\"><circle cx=\\\"50\\\" cy=\\\"50\\\" r=\\\"30\\\" fill=\\\"white\\\" stroke=\\\"black\\\" stroke-width=\\\"4\\\" /></svg>\"]",
		"key_press": "[70]",
		"period_ms": 1600,
		"first_flash_ms": 930,
		"flash_time_diff": 130,
		"trial_type": "multi-stim-multi-response",
		"trial_index": 48,
		"time_elapsed": 289021,
		"internal_node_id": "0.0-2.0-46.0",
		"respond_longer": false,
		"response_time": 3155
	},
	{
		"rt": "[5795]",
		"stimulus": "[\"<svg height=\\\"100\\\" width=\\\"100\\\"><circle cx=\\\"50\\\" cy=\\\"50\\\" r=\\\"30\\\" fill=\\\"gray\\\" stroke=\\\"black\\\" stroke-width=\\\"4\\\" /></svg>\",\"<svg height=\\\"100\\\" width=\\\"100\\\"><circle cx=\\\"50\\\" cy=\\\"50\\\" r=\\\"30\\\" fill=\\\"white\\\" stroke=\\\"black\\\" stroke-width=\\\"4\\\" /></svg>\",\"<svg height=\\\"100\\\" width=\\\"100\\\"><circle cx=\\\"50\\\" cy=\\\"50\\\" r=\\\"30\\\" fill=\\\"gray\\\" stroke=\\\"black\\\" stroke-width=\\\"4\\\" /></svg>\",\"<svg height=\\\"100\\\" width=\\\"100\\\"><circle cx=\\\"50\\\" cy=\\\"50\\\" r=\\\"30\\\" fill=\\\"white\\\" stroke=\\\"black\\\" stroke-width=\\\"4\\\" /></svg>\",\"<svg height=\\\"100\\\" width=\\\"100\\\"><circle cx=\\\"50\\\" cy=\\\"50\\\" r=\\\"30\\\" fill=\\\"gray\\\" stroke=\\\"black\\\" stroke-width=\\\"4\\\" /></svg>\",\"<svg height=\\\"100\\\" width=\\\"100\\\"><circle cx=\\\"50\\\" cy=\\\"50\\\" r=\\\"30\\\" fill=\\\"white\\\" stroke=\\\"black\\\" stroke-width=\\\"4\\\" /></svg>\",\"<svg height=\\\"100\\\" width=\\\"100\\\"><circle cx=\\\"50\\\" cy=\\\"50\\\" r=\\\"30\\\" fill=\\\"gray\\\" stroke=\\\"black\\\" stroke-width=\\\"4\\\" /></svg>\",\"<svg height=\\\"100\\\" width=\\\"100\\\"><circle cx=\\\"50\\\" cy=\\\"50\\\" r=\\\"30\\\" fill=\\\"white\\\" stroke=\\\"black\\\" stroke-width=\\\"4\\\" /></svg>\"]",
		"key_press": "[70]",
		"period_ms": 1800,
		"first_flash_ms": 890,
		"flash_time_diff": -10,
		"trial_type": "multi-stim-multi-response",
		"trial_index": 49,
		"time_elapsed": 295790,
		"internal_node_id": "0.0-2.0-47.0",
		"respond_longer": false,
		"response_time": 3105
	},
	{
		"rt": 381465,
		"key_press": 32,
		"trial_type": "text",
		"trial_index": 50,
		"time_elapsed": 678796,
		"internal_node_id": "0.0-3.0"
	},
	{
		"rt": "[2703]",
		"stimulus": "[\"<svg height=\\\"100\\\" width=\\\"100\\\"><circle cx=\\\"50\\\" cy=\\\"50\\\" r=\\\"30\\\" fill=\\\"gray\\\" stroke=\\\"black\\\" stroke-width=\\\"4\\\" /></svg>\",\"<svg height=\\\"100\\\" width=\\\"100\\\"><circle cx=\\\"50\\\" cy=\\\"50\\\" r=\\\"30\\\" fill=\\\"white\\\" stroke=\\\"black\\\" stroke-width=\\\"4\\\" /></svg>\",\"<svg height=\\\"100\\\" width=\\\"100\\\"><circle cx=\\\"50\\\" cy=\\\"50\\\" r=\\\"30\\\" fill=\\\"gray\\\" stroke=\\\"black\\\" stroke-width=\\\"4\\\" /></svg>\",\"<svg height=\\\"100\\\" width=\\\"100\\\"><circle cx=\\\"50\\\" cy=\\\"50\\\" r=\\\"30\\\" fill=\\\"white\\\" stroke=\\\"black\\\" stroke-width=\\\"4\\\" /></svg>\",\"<svg height=\\\"100\\\" width=\\\"100\\\"><circle cx=\\\"50\\\" cy=\\\"50\\\" r=\\\"30\\\" fill=\\\"gray\\\" stroke=\\\"black\\\" stroke-width=\\\"4\\\" /></svg>\",\"<svg height=\\\"100\\\" width=\\\"100\\\"><circle cx=\\\"50\\\" cy=\\\"50\\\" r=\\\"30\\\" fill=\\\"white\\\" stroke=\\\"black\\\" stroke-width=\\\"4\\\" /></svg>\",\"<svg height=\\\"100\\\" width=\\\"100\\\"><circle cx=\\\"50\\\" cy=\\\"50\\\" r=\\\"30\\\" fill=\\\"gray\\\" stroke=\\\"black\\\" stroke-width=\\\"4\\\" /></svg>\",\"<svg height=\\\"100\\\" width=\\\"100\\\"><circle cx=\\\"50\\\" cy=\\\"50\\\" r=\\\"30\\\" fill=\\\"white\\\" stroke=\\\"black\\\" stroke-width=\\\"4\\\" /></svg>\"]",
		"key_press": "[70]",
		"period_ms": 1600,
		"first_flash_ms": 690,
		"flash_time_diff": -110,
		"trial_type": "multi-stim-multi-response",
		"trial_index": 51,
		"time_elapsed": 683276,
		"internal_node_id": "0.0-4.0-0.0",
		"respond_longer": false,
		"response_time": 413
	},
	{
		"rt": "[5160]",
		"stimulus": "[\"<svg height=\\\"100\\\" width=\\\"100\\\"><circle cx=\\\"50\\\" cy=\\\"50\\\" r=\\\"30\\\" fill=\\\"gray\\\" stroke=\\\"black\\\" stroke-width=\\\"4\\\" /></svg>\",\"<svg height=\\\"100\\\" width=\\\"100\\\"><circle cx=\\\"50\\\" cy=\\\"50\\\" r=\\\"30\\\" fill=\\\"white\\\" stroke=\\\"black\\\" stroke-width=\\\"4\\\" /></svg>\",\"<svg height=\\\"100\\\" width=\\\"100\\\"><circle cx=\\\"50\\\" cy=\\\"50\\\" r=\\\"30\\\" fill=\\\"gray\\\" stroke=\\\"black\\\" stroke-width=\\\"4\\\" /></svg>\",\"<svg height=\\\"100\\\" width=\\\"100\\\"><circle cx=\\\"50\\\" cy=\\\"50\\\" r=\\\"30\\\" fill=\\\"white\\\" stroke=\\\"black\\\" stroke-width=\\\"4\\\" /></svg>\",\"<svg height=\\\"100\\\" width=\\\"100\\\"><circle cx=\\\"50\\\" cy=\\\"50\\\" r=\\\"30\\\" fill=\\\"gray\\\" stroke=\\\"black\\\" stroke-width=\\\"4\\\" /></svg>\",\"<svg height=\\\"100\\\" width=\\\"100\\\"><circle cx=\\\"50\\\" cy=\\\"50\\\" r=\\\"30\\\" fill=\\\"white\\\" stroke=\\\"black\\\" stroke-width=\\\"4\\\" /></svg>\",\"<svg height=\\\"100\\\" width=\\\"100\\\"><circle cx=\\\"50\\\" cy=\\\"50\\\" r=\\\"30\\\" fill=\\\"gray\\\" stroke=\\\"black\\\" stroke-width=\\\"4\\\" /></svg>\",\"<svg height=\\\"100\\\" width=\\\"100\\\"><circle cx=\\\"50\\\" cy=\\\"50\\\" r=\\\"30\\\" fill=\\\"white\\\" stroke=\\\"black\\\" stroke-width=\\\"4\\\" /></svg>\"]",
		"key_press": "[70]",
		"period_ms": 1600,
		"first_flash_ms": 690,
		"flash_time_diff": -110,
		"trial_type": "multi-stim-multi-response",
		"trial_index": 52,
		"time_elapsed": 689491,
		"internal_node_id": "0.0-4.0-1.0",
		"respond_longer": false,
		"response_time": 2870
	},
	{
		"rt": "[4015]",
		"stimulus": "[\"<svg height=\\\"100\\\" width=\\\"100\\\"><circle cx=\\\"50\\\" cy=\\\"50\\\" r=\\\"30\\\" fill=\\\"gray\\\" stroke=\\\"black\\\" stroke-width=\\\"4\\\" /></svg>\",\"<svg height=\\\"100\\\" width=\\\"100\\\"><circle cx=\\\"50\\\" cy=\\\"50\\\" r=\\\"30\\\" fill=\\\"white\\\" stroke=\\\"black\\\" stroke-width=\\\"4\\\" /></svg>\",\"<svg height=\\\"100\\\" width=\\\"100\\\"><circle cx=\\\"50\\\" cy=\\\"50\\\" r=\\\"30\\\" fill=\\\"gray\\\" stroke=\\\"black\\\" stroke-width=\\\"4\\\" /></svg>\",\"<svg height=\\\"100\\\" width=\\\"100\\\"><circle cx=\\\"50\\\" cy=\\\"50\\\" r=\\\"30\\\" fill=\\\"white\\\" stroke=\\\"black\\\" stroke-width=\\\"4\\\" /></svg>\",\"<svg height=\\\"100\\\" width=\\\"100\\\"><circle cx=\\\"50\\\" cy=\\\"50\\\" r=\\\"30\\\" fill=\\\"gray\\\" stroke=\\\"black\\\" stroke-width=\\\"4\\\" /></svg>\",\"<svg height=\\\"100\\\" width=\\\"100\\\"><circle cx=\\\"50\\\" cy=\\\"50\\\" r=\\\"30\\\" fill=\\\"white\\\" stroke=\\\"black\\\" stroke-width=\\\"4\\\" /></svg>\",\"<svg height=\\\"100\\\" width=\\\"100\\\"><circle cx=\\\"50\\\" cy=\\\"50\\\" r=\\\"30\\\" fill=\\\"gray\\\" stroke=\\\"black\\\" stroke-width=\\\"4\\\" /></svg>\",\"<svg height=\\\"100\\\" width=\\\"100\\\"><circle cx=\\\"50\\\" cy=\\\"50\\\" r=\\\"30\\\" fill=\\\"white\\\" stroke=\\\"black\\\" stroke-width=\\\"4\\\" /></svg>\"]",
		"key_press": "[70]",
		"period_ms": 1400,
		"first_flash_ms": 730,
		"flash_time_diff": 30,
		"trial_type": "multi-stim-multi-response",
		"trial_index": 53,
		"time_elapsed": 695227,
		"internal_node_id": "0.0-4.0-2.0",
		"respond_longer": false,
		"response_time": 1885
	},
	{
		"rt": "[3055]",
		"stimulus": "[\"<svg height=\\\"100\\\" width=\\\"100\\\"><circle cx=\\\"50\\\" cy=\\\"50\\\" r=\\\"30\\\" fill=\\\"gray\\\" stroke=\\\"black\\\" stroke-width=\\\"4\\\" /></svg>\",\"<svg height=\\\"100\\\" width=\\\"100\\\"><circle cx=\\\"50\\\" cy=\\\"50\\\" r=\\\"30\\\" fill=\\\"white\\\" stroke=\\\"black\\\" stroke-width=\\\"4\\\" /></svg>\",\"<svg height=\\\"100\\\" width=\\\"100\\\"><circle cx=\\\"50\\\" cy=\\\"50\\\" r=\\\"30\\\" fill=\\\"gray\\\" stroke=\\\"black\\\" stroke-width=\\\"4\\\" /></svg>\",\"<svg height=\\\"100\\\" width=\\\"100\\\"><circle cx=\\\"50\\\" cy=\\\"50\\\" r=\\\"30\\\" fill=\\\"white\\\" stroke=\\\"black\\\" stroke-width=\\\"4\\\" /></svg>\",\"<svg height=\\\"100\\\" width=\\\"100\\\"><circle cx=\\\"50\\\" cy=\\\"50\\\" r=\\\"30\\\" fill=\\\"gray\\\" stroke=\\\"black\\\" stroke-width=\\\"4\\\" /></svg>\",\"<svg height=\\\"100\\\" width=\\\"100\\\"><circle cx=\\\"50\\\" cy=\\\"50\\\" r=\\\"30\\\" fill=\\\"white\\\" stroke=\\\"black\\\" stroke-width=\\\"4\\\" /></svg>\",\"<svg height=\\\"100\\\" width=\\\"100\\\"><circle cx=\\\"50\\\" cy=\\\"50\\\" r=\\\"30\\\" fill=\\\"gray\\\" stroke=\\\"black\\\" stroke-width=\\\"4\\\" /></svg>\",\"<svg height=\\\"100\\\" width=\\\"100\\\"><circle cx=\\\"50\\\" cy=\\\"50\\\" r=\\\"30\\\" fill=\\\"white\\\" stroke=\\\"black\\\" stroke-width=\\\"4\\\" /></svg>\"]",
		"key_press": "[70]",
		"period_ms": 1800,
		"first_flash_ms": 730,
		"flash_time_diff": -170,
		"trial_type": "multi-stim-multi-response",
		"trial_index": 54,
		"time_elapsed": 699316,
		"internal_node_id": "0.0-4.0-3.0",
		"respond_longer": false,
		"response_time": 525
	},
	{
		"rt": "[4170]",
		"stimulus": "[\"<svg height=\\\"100\\\" width=\\\"100\\\"><circle cx=\\\"50\\\" cy=\\\"50\\\" r=\\\"30\\\" fill=\\\"gray\\\" stroke=\\\"black\\\" stroke-width=\\\"4\\\" /></svg>\",\"<svg height=\\\"100\\\" width=\\\"100\\\"><circle cx=\\\"50\\\" cy=\\\"50\\\" r=\\\"30\\\" fill=\\\"white\\\" stroke=\\\"black\\\" stroke-width=\\\"4\\\" /></svg>\",\"<svg height=\\\"100\\\" width=\\\"100\\\"><circle cx=\\\"50\\\" cy=\\\"50\\\" r=\\\"30\\\" fill=\\\"gray\\\" stroke=\\\"black\\\" stroke-width=\\\"4\\\" /></svg>\",\"<svg height=\\\"100\\\" width=\\\"100\\\"><circle cx=\\\"50\\\" cy=\\\"50\\\" r=\\\"30\\\" fill=\\\"white\\\" stroke=\\\"black\\\" stroke-width=\\\"4\\\" /></svg>\",\"<svg height=\\\"100\\\" width=\\\"100\\\"><circle cx=\\\"50\\\" cy=\\\"50\\\" r=\\\"30\\\" fill=\\\"gray\\\" stroke=\\\"black\\\" stroke-width=\\\"4\\\" /></svg>\",\"<svg height=\\\"100\\\" width=\\\"100\\\"><circle cx=\\\"50\\\" cy=\\\"50\\\" r=\\\"30\\\" fill=\\\"white\\\" stroke=\\\"black\\\" stroke-width=\\\"4\\\" /></svg>\",\"<svg height=\\\"100\\\" width=\\\"100\\\"><circle cx=\\\"50\\\" cy=\\\"50\\\" r=\\\"30\\\" fill=\\\"gray\\\" stroke=\\\"black\\\" stroke-width=\\\"4\\\" /></svg>\",\"<svg height=\\\"100\\\" width=\\\"100\\\"><circle cx=\\\"50\\\" cy=\\\"50\\\" r=\\\"30\\\" fill=\\\"white\\\" stroke=\\\"black\\\" stroke-width=\\\"4\\\" /></svg>\"]",
		"key_press": "[74]",
		"period_ms": 1400,
		"first_flash_ms": 930,
		"flash_time_diff": 230,
		"trial_type": "multi-stim-multi-response",
		"trial_index": 55,
		"time_elapsed": 704659,
		"internal_node_id": "0.0-4.0-4.0",
		"respond_longer": true,
		"response_time": 1840
	},
	{
		"rt": "[4406]",
		"stimulus": "[\"<svg height=\\\"100\\\" width=\\\"100\\\"><circle cx=\\\"50\\\" cy=\\\"50\\\" r=\\\"30\\\" fill=\\\"gray\\\" stroke=\\\"black\\\" stroke-width=\\\"4\\\" /></svg>\",\"<svg height=\\\"100\\\" width=\\\"100\\\"><circle cx=\\\"50\\\" cy=\\\"50\\\" r=\\\"30\\\" fill=\\\"white\\\" stroke=\\\"black\\\" stroke-width=\\\"4\\\" /></svg>\",\"<svg height=\\\"100\\\" width=\\\"100\\\"><circle cx=\\\"50\\\" cy=\\\"50\\\" r=\\\"30\\\" fill=\\\"gray\\\" stroke=\\\"black\\\" stroke-width=\\\"4\\\" /></svg>\",\"<svg height=\\\"100\\\" width=\\\"100\\\"><circle cx=\\\"50\\\" cy=\\\"50\\\" r=\\\"30\\\" fill=\\\"white\\\" stroke=\\\"black\\\" stroke-width=\\\"4\\\" /></svg>\",\"<svg height=\\\"100\\\" width=\\\"100\\\"><circle cx=\\\"50\\\" cy=\\\"50\\\" r=\\\"30\\\" fill=\\\"gray\\\" stroke=\\\"black\\\" stroke-width=\\\"4\\\" /></svg>\",\"<svg height=\\\"100\\\" width=\\\"100\\\"><circle cx=\\\"50\\\" cy=\\\"50\\\" r=\\\"30\\\" fill=\\\"white\\\" stroke=\\\"black\\\" stroke-width=\\\"4\\\" /></svg>\",\"<svg height=\\\"100\\\" width=\\\"100\\\"><circle cx=\\\"50\\\" cy=\\\"50\\\" r=\\\"30\\\" fill=\\\"gray\\\" stroke=\\\"black\\\" stroke-width=\\\"4\\\" /></svg>\",\"<svg height=\\\"100\\\" width=\\\"100\\\"><circle cx=\\\"50\\\" cy=\\\"50\\\" r=\\\"30\\\" fill=\\\"white\\\" stroke=\\\"black\\\" stroke-width=\\\"4\\\" /></svg>\"]",
		"key_press": "[70]",
		"period_ms": 1600,
		"first_flash_ms": 810,
		"flash_time_diff": 10,
		"trial_type": "multi-stim-multi-response",
		"trial_index": 56,
		"time_elapsed": 710491,
		"internal_node_id": "0.0-4.0-5.0",
		"respond_longer": false,
		"response_time": 1996
	},
	{
		"rt": "[4583]",
		"stimulus": "[\"<svg height=\\\"100\\\" width=\\\"100\\\"><circle cx=\\\"50\\\" cy=\\\"50\\\" r=\\\"30\\\" fill=\\\"gray\\\" stroke=\\\"black\\\" stroke-width=\\\"4\\\" /></svg>\",\"<svg height=\\\"100\\\" width=\\\"100\\\"><circle cx=\\\"50\\\" cy=\\\"50\\\" r=\\\"30\\\" fill=\\\"white\\\" stroke=\\\"black\\\" stroke-width=\\\"4\\\" /></svg>\",\"<svg height=\\\"100\\\" width=\\\"100\\\"><circle cx=\\\"50\\\" cy=\\\"50\\\" r=\\\"30\\\" fill=\\\"gray\\\" stroke=\\\"black\\\" stroke-width=\\\"4\\\" /></svg>\",\"<svg height=\\\"100\\\" width=\\\"100\\\"><circle cx=\\\"50\\\" cy=\\\"50\\\" r=\\\"30\\\" fill=\\\"white\\\" stroke=\\\"black\\\" stroke-width=\\\"4\\\" /></svg>\",\"<svg height=\\\"100\\\" width=\\\"100\\\"><circle cx=\\\"50\\\" cy=\\\"50\\\" r=\\\"30\\\" fill=\\\"gray\\\" stroke=\\\"black\\\" stroke-width=\\\"4\\\" /></svg>\",\"<svg height=\\\"100\\\" width=\\\"100\\\"><circle cx=\\\"50\\\" cy=\\\"50\\\" r=\\\"30\\\" fill=\\\"white\\\" stroke=\\\"black\\\" stroke-width=\\\"4\\\" /></svg>\",\"<svg height=\\\"100\\\" width=\\\"100\\\"><circle cx=\\\"50\\\" cy=\\\"50\\\" r=\\\"30\\\" fill=\\\"gray\\\" stroke=\\\"black\\\" stroke-width=\\\"4\\\" /></svg>\",\"<svg height=\\\"100\\\" width=\\\"100\\\"><circle cx=\\\"50\\\" cy=\\\"50\\\" r=\\\"30\\\" fill=\\\"white\\\" stroke=\\\"black\\\" stroke-width=\\\"4\\\" /></svg>\"]",
		"key_press": "[74]",
		"period_ms": 1800,
		"first_flash_ms": 650,
		"flash_time_diff": -250,
		"trial_type": "multi-stim-multi-response",
		"trial_index": 57,
		"time_elapsed": 716396,
		"internal_node_id": "0.0-4.0-6.0",
		"respond_longer": true,
		"response_time": 2133
	},
	{
		"rt": "[7080]",
		"stimulus": "[\"<svg height=\\\"100\\\" width=\\\"100\\\"><circle cx=\\\"50\\\" cy=\\\"50\\\" r=\\\"30\\\" fill=\\\"gray\\\" stroke=\\\"black\\\" stroke-width=\\\"4\\\" /></svg>\",\"<svg height=\\\"100\\\" width=\\\"100\\\"><circle cx=\\\"50\\\" cy=\\\"50\\\" r=\\\"30\\\" fill=\\\"white\\\" stroke=\\\"black\\\" stroke-width=\\\"4\\\" /></svg>\",\"<svg height=\\\"100\\\" width=\\\"100\\\"><circle cx=\\\"50\\\" cy=\\\"50\\\" r=\\\"30\\\" fill=\\\"gray\\\" stroke=\\\"black\\\" stroke-width=\\\"4\\\" /></svg>\",\"<svg height=\\\"100\\\" width=\\\"100\\\"><circle cx=\\\"50\\\" cy=\\\"50\\\" r=\\\"30\\\" fill=\\\"white\\\" stroke=\\\"black\\\" stroke-width=\\\"4\\\" /></svg>\",\"<svg height=\\\"100\\\" width=\\\"100\\\"><circle cx=\\\"50\\\" cy=\\\"50\\\" r=\\\"30\\\" fill=\\\"gray\\\" stroke=\\\"black\\\" stroke-width=\\\"4\\\" /></svg>\",\"<svg height=\\\"100\\\" width=\\\"100\\\"><circle cx=\\\"50\\\" cy=\\\"50\\\" r=\\\"30\\\" fill=\\\"white\\\" stroke=\\\"black\\\" stroke-width=\\\"4\\\" /></svg>\",\"<svg height=\\\"100\\\" width=\\\"100\\\"><circle cx=\\\"50\\\" cy=\\\"50\\\" r=\\\"30\\\" fill=\\\"gray\\\" stroke=\\\"black\\\" stroke-width=\\\"4\\\" /></svg>\",\"<svg height=\\\"100\\\" width=\\\"100\\\"><circle cx=\\\"50\\\" cy=\\\"50\\\" r=\\\"30\\\" fill=\\\"white\\\" stroke=\\\"black\\\" stroke-width=\\\"4\\\" /></svg>\"]",
		"key_press": "[70]",
		"period_ms": 1600,
		"first_flash_ms": 930,
		"flash_time_diff": 130,
		"trial_type": "multi-stim-multi-response",
		"trial_index": 58,
		"time_elapsed": 724555,
		"internal_node_id": "0.0-4.0-7.0",
		"respond_longer": false,
		"response_time": 4550
	},
	{
		"rt": "[4733]",
		"stimulus": "[\"<svg height=\\\"100\\\" width=\\\"100\\\"><circle cx=\\\"50\\\" cy=\\\"50\\\" r=\\\"30\\\" fill=\\\"gray\\\" stroke=\\\"black\\\" stroke-width=\\\"4\\\" /></svg>\",\"<svg height=\\\"100\\\" width=\\\"100\\\"><circle cx=\\\"50\\\" cy=\\\"50\\\" r=\\\"30\\\" fill=\\\"white\\\" stroke=\\\"black\\\" stroke-width=\\\"4\\\" /></svg>\",\"<svg height=\\\"100\\\" width=\\\"100\\\"><circle cx=\\\"50\\\" cy=\\\"50\\\" r=\\\"30\\\" fill=\\\"gray\\\" stroke=\\\"black\\\" stroke-width=\\\"4\\\" /></svg>\",\"<svg height=\\\"100\\\" width=\\\"100\\\"><circle cx=\\\"50\\\" cy=\\\"50\\\" r=\\\"30\\\" fill=\\\"white\\\" stroke=\\\"black\\\" stroke-width=\\\"4\\\" /></svg>\",\"<svg height=\\\"100\\\" width=\\\"100\\\"><circle cx=\\\"50\\\" cy=\\\"50\\\" r=\\\"30\\\" fill=\\\"gray\\\" stroke=\\\"black\\\" stroke-width=\\\"4\\\" /></svg>\",\"<svg height=\\\"100\\\" width=\\\"100\\\"><circle cx=\\\"50\\\" cy=\\\"50\\\" r=\\\"30\\\" fill=\\\"white\\\" stroke=\\\"black\\\" stroke-width=\\\"4\\\" /></svg>\",\"<svg height=\\\"100\\\" width=\\\"100\\\"><circle cx=\\\"50\\\" cy=\\\"50\\\" r=\\\"30\\\" fill=\\\"gray\\\" stroke=\\\"black\\\" stroke-width=\\\"4\\\" /></svg>\",\"<svg height=\\\"100\\\" width=\\\"100\\\"><circle cx=\\\"50\\\" cy=\\\"50\\\" r=\\\"30\\\" fill=\\\"white\\\" stroke=\\\"black\\\" stroke-width=\\\"4\\\" /></svg>\"]",
		"key_press": "[74]",
		"period_ms": 1400,
		"first_flash_ms": 770,
		"flash_time_diff": 70,
		"trial_type": "multi-stim-multi-response",
		"trial_index": 59,
		"time_elapsed": 730715,
		"internal_node_id": "0.0-4.0-8.0",
		"respond_longer": true,
		"response_time": 2563
	},
	{
		"rt": "[5532]",
		"stimulus": "[\"<svg height=\\\"100\\\" width=\\\"100\\\"><circle cx=\\\"50\\\" cy=\\\"50\\\" r=\\\"30\\\" fill=\\\"gray\\\" stroke=\\\"black\\\" stroke-width=\\\"4\\\" /></svg>\",\"<svg height=\\\"100\\\" width=\\\"100\\\"><circle cx=\\\"50\\\" cy=\\\"50\\\" r=\\\"30\\\" fill=\\\"white\\\" stroke=\\\"black\\\" stroke-width=\\\"4\\\" /></svg>\",\"<svg height=\\\"100\\\" width=\\\"100\\\"><circle cx=\\\"50\\\" cy=\\\"50\\\" r=\\\"30\\\" fill=\\\"gray\\\" stroke=\\\"black\\\" stroke-width=\\\"4\\\" /></svg>\",\"<svg height=\\\"100\\\" width=\\\"100\\\"><circle cx=\\\"50\\\" cy=\\\"50\\\" r=\\\"30\\\" fill=\\\"white\\\" stroke=\\\"black\\\" stroke-width=\\\"4\\\" /></svg>\",\"<svg height=\\\"100\\\" width=\\\"100\\\"><circle cx=\\\"50\\\" cy=\\\"50\\\" r=\\\"30\\\" fill=\\\"gray\\\" stroke=\\\"black\\\" stroke-width=\\\"4\\\" /></svg>\",\"<svg height=\\\"100\\\" width=\\\"100\\\"><circle cx=\\\"50\\\" cy=\\\"50\\\" r=\\\"30\\\" fill=\\\"white\\\" stroke=\\\"black\\\" stroke-width=\\\"4\\\" /></svg>\",\"<svg height=\\\"100\\\" width=\\\"100\\\"><circle cx=\\\"50\\\" cy=\\\"50\\\" r=\\\"30\\\" fill=\\\"gray\\\" stroke=\\\"black\\\" stroke-width=\\\"4\\\" /></svg>\",\"<svg height=\\\"100\\\" width=\\\"100\\\"><circle cx=\\\"50\\\" cy=\\\"50\\\" r=\\\"30\\\" fill=\\\"white\\\" stroke=\\\"black\\\" stroke-width=\\\"4\\\" /></svg>\"]",
		"key_press": "[74]",
		"period_ms": 1400,
		"first_flash_ms": 650,
		"flash_time_diff": -50,
		"trial_type": "multi-stim-multi-response",
		"trial_index": 60,
		"time_elapsed": 737379,
		"internal_node_id": "0.0-4.0-9.0",
		"respond_longer": true,
		"response_time": 3482
	},
	{
		"rt": "[3766]",
		"stimulus": "[\"<svg height=\\\"100\\\" width=\\\"100\\\"><circle cx=\\\"50\\\" cy=\\\"50\\\" r=\\\"30\\\" fill=\\\"gray\\\" stroke=\\\"black\\\" stroke-width=\\\"4\\\" /></svg>\",\"<svg height=\\\"100\\\" width=\\\"100\\\"><circle cx=\\\"50\\\" cy=\\\"50\\\" r=\\\"30\\\" fill=\\\"white\\\" stroke=\\\"black\\\" stroke-width=\\\"4\\\" /></svg>\",\"<svg height=\\\"100\\\" width=\\\"100\\\"><circle cx=\\\"50\\\" cy=\\\"50\\\" r=\\\"30\\\" fill=\\\"gray\\\" stroke=\\\"black\\\" stroke-width=\\\"4\\\" /></svg>\",\"<svg height=\\\"100\\\" width=\\\"100\\\"><circle cx=\\\"50\\\" cy=\\\"50\\\" r=\\\"30\\\" fill=\\\"white\\\" stroke=\\\"black\\\" stroke-width=\\\"4\\\" /></svg>\",\"<svg height=\\\"100\\\" width=\\\"100\\\"><circle cx=\\\"50\\\" cy=\\\"50\\\" r=\\\"30\\\" fill=\\\"gray\\\" stroke=\\\"black\\\" stroke-width=\\\"4\\\" /></svg>\",\"<svg height=\\\"100\\\" width=\\\"100\\\"><circle cx=\\\"50\\\" cy=\\\"50\\\" r=\\\"30\\\" fill=\\\"white\\\" stroke=\\\"black\\\" stroke-width=\\\"4\\\" /></svg>\",\"<svg height=\\\"100\\\" width=\\\"100\\\"><circle cx=\\\"50\\\" cy=\\\"50\\\" r=\\\"30\\\" fill=\\\"gray\\\" stroke=\\\"black\\\" stroke-width=\\\"4\\\" /></svg>\",\"<svg height=\\\"100\\\" width=\\\"100\\\"><circle cx=\\\"50\\\" cy=\\\"50\\\" r=\\\"30\\\" fill=\\\"white\\\" stroke=\\\"black\\\" stroke-width=\\\"4\\\" /></svg>\"]",
		"key_press": "[74]",
		"period_ms": 1600,
		"first_flash_ms": 770,
		"flash_time_diff": -30,
		"trial_type": "multi-stim-multi-response",
		"trial_index": 61,
		"time_elapsed": 743045,
		"internal_node_id": "0.0-4.0-10.0",
		"respond_longer": true,
		"response_time": 1396
	},
	{
		"rt": "[5677]",
		"stimulus": "[\"<svg height=\\\"100\\\" width=\\\"100\\\"><circle cx=\\\"50\\\" cy=\\\"50\\\" r=\\\"30\\\" fill=\\\"gray\\\" stroke=\\\"black\\\" stroke-width=\\\"4\\\" /></svg>\",\"<svg height=\\\"100\\\" width=\\\"100\\\"><circle cx=\\\"50\\\" cy=\\\"50\\\" r=\\\"30\\\" fill=\\\"white\\\" stroke=\\\"black\\\" stroke-width=\\\"4\\\" /></svg>\",\"<svg height=\\\"100\\\" width=\\\"100\\\"><circle cx=\\\"50\\\" cy=\\\"50\\\" r=\\\"30\\\" fill=\\\"gray\\\" stroke=\\\"black\\\" stroke-width=\\\"4\\\" /></svg>\",\"<svg height=\\\"100\\\" width=\\\"100\\\"><circle cx=\\\"50\\\" cy=\\\"50\\\" r=\\\"30\\\" fill=\\\"white\\\" stroke=\\\"black\\\" stroke-width=\\\"4\\\" /></svg>\",\"<svg height=\\\"100\\\" width=\\\"100\\\"><circle cx=\\\"50\\\" cy=\\\"50\\\" r=\\\"30\\\" fill=\\\"gray\\\" stroke=\\\"black\\\" stroke-width=\\\"4\\\" /></svg>\",\"<svg height=\\\"100\\\" width=\\\"100\\\"><circle cx=\\\"50\\\" cy=\\\"50\\\" r=\\\"30\\\" fill=\\\"white\\\" stroke=\\\"black\\\" stroke-width=\\\"4\\\" /></svg>\",\"<svg height=\\\"100\\\" width=\\\"100\\\"><circle cx=\\\"50\\\" cy=\\\"50\\\" r=\\\"30\\\" fill=\\\"gray\\\" stroke=\\\"black\\\" stroke-width=\\\"4\\\" /></svg>\",\"<svg height=\\\"100\\\" width=\\\"100\\\"><circle cx=\\\"50\\\" cy=\\\"50\\\" r=\\\"30\\\" fill=\\\"white\\\" stroke=\\\"black\\\" stroke-width=\\\"4\\\" /></svg>\"]",
		"key_press": "[70]",
		"period_ms": 1800,
		"first_flash_ms": 730,
		"flash_time_diff": -170,
		"trial_type": "multi-stim-multi-response",
		"trial_index": 62,
		"time_elapsed": 750405,
		"internal_node_id": "0.0-4.0-11.0",
		"respond_longer": false,
		"response_time": 3147
	},
	{
		"rt": "[4290]",
